Timestamp,Accelerometer_X,Accelerometer_Y,Accelerometer_Z,Gyroscope_X,Gyroscope_Y,Gyroscope_Z,Magnetometer_X,Magnetometer_Y,Magnetometer_Z,Latitude,Longitude,Speed
1729838427547,0.38569176,-0.63519615,9.757976,0.0065824254,-1.253247E-4,-0.007470399,72.38503,-23.229418,21.0642,23.12779332,72.54175835,23.005219
1729838427624,0.43513376,-0.6380872,9.8859825,0.0065824254,-1.253247E-4,-0.007470399,72.38503,-23.229418,21.0642,23.12779332,72.54175835,23.005219
1729838427625,0.3570801,-0.5847669,9.825557,0.0065824254,-1.253247E-4,-0.007470399,72.38503,-23.229418,21.0642,23.12779332,72.54175835,23.005219
1729838427625,0.35146672,-0.61557037,9.807963,0.0065824254,-1.253247E-4,-0.007470399,72.38503,-23.229418,21.0642,23.12779332,72.54175835,23.005219
1729838427625,0.28177157,-0.62430084,9.836002,0.0065824254,-1.253247E-4,-0.007470399,72.38503,-23.229418,21.0642,23.12779332,72.54175835,23.005219
1729838427626,0.25604537,-0.5874965,9.798016,0.0065824254,-1.253247E-4,-0.007470399,72.38503,-23.229418,21.0642,23.12779332,72.54175835,23.005219
1729838427626,0.34015042,-0.6415626,9.8363,0.0065824254,-1.253247E-4,-0.007470399,72.38503,-23.229418,21.0642,23.12779332,72.54175835,23.005219
1729838427626,0.26577935,-0.63839465,9.911793,0.0065824254,-1.253247E-4,-0.007470399,72.38503,-23.229418,21.0642,23.12779332,72.54175835,23.005219
1729838427626,0.33669132,-0.65548146,10.039664,0.0065824254,-1.253247E-4,-0.007470399,72.38503,-23.229418,21.0642,23.12779332,72.54175835,23.005219
1729838427627,0.42572403,-0.7356714,10.103198,0.0065824254,-1.253247E-4,-0.007470399,72.38503,-23.229418,21.0642,23.12779332,72.54175835,23.005219
1729838427639,0.42572403,-0.7356714,10.103198,0.0065824254,-1.253247E-4,-0.007470399,72.35678,-23.166035,21.100111,23.12779332,72.54175835,23.005219
1729838427645,0.42572403,-0.7356714,10.103198,0.0065824254,-1.253247E-4,-0.007470399,72.35678,-23.166035,21.100111,23.12773081,72.54175815,24.996891
1729838427647,0.36103788,-0.6832929,10.129858,0.0065824254,-1.253247E-4,-0.007470399,72.35678,-23.166035,21.100111,23.12773081,72.54175815,24.996891
1729838427753,0.36103788,-0.6832929,10.129858,2.2630626E-4,0.0042063366,-0.0035939468,72.35678,-23.166035,21.100111,23.12773081,72.54175815,24.996891
1729838427754,0.37018627,-0.7390173,10.006899,2.2630626E-4,0.0042063366,-0.0035939468,72.35678,-23.166035,21.100111,23.12773081,72.54175815,24.996891
1729838427754,0.3819317,-0.73574036,9.884363,2.2630626E-4,0.0042063366,-0.0035939468,72.35678,-23.166035,21.100111,23.12773081,72.54175815,24.996891
1729838427754,0.41059026,-0.74879175,9.911718,2.2630626E-4,0.0042063366,-0.0035939468,72.35678,-23.166035,21.100111,23.12773081,72.54175815,24.996891
1729838427755,0.39834264,-0.8076875,9.9521475,2.2630626E-4,0.0042063366,-0.0035939468,72.35678,-23.166035,21.100111,23.12773081,72.54175815,24.996891
1729838427755,0.2063311,-0.8726307,10.008657,2.2630626E-4,0.0042063366,-0.0035939468,72.35678,-23.166035,21.100111,23.12773081,72.54175815,24.996891
1729838427839,0.2063311,-0.8726307,10.008657,2.2630626E-4,0.0042063366,-0.0035939468,72.32292,-23.089077,21.125088,23.12773081,72.54175815,24.996891
1729838427915,0.20083758,-0.85052735,9.994884,2.2630626E-4,0.0042063366,-0.0035939468,72.32292,-23.089077,21.125088,23.12773081,72.54175815,24.996891
1729838427916,0.31189644,-0.9273612,9.851421,2.2630626E-4,0.0042063366,-0.0035939468,72.32292,-23.089077,21.125088,23.12773081,72.54175815,24.996891
1729838427916,0.21697477,-0.89957595,9.760341,2.2630626E-4,0.0042063366,-0.0035939468,72.32292,-23.089077,21.125088,23.12773081,72.54175815,24.996891
1729838427916,0.11543423,-0.8948153,9.693458,2.2630626E-4,0.0042063366,-0.0035939468,72.32292,-23.089077,21.125088,23.12773081,72.54175815,24.996891
1729838427916,0.13063255,-0.98289126,9.686013,2.2630626E-4,0.0042063366,-0.0035939468,72.32292,-23.089077,21.125088,23.12773081,72.54175815,24.996891
1729838427917,-0.024347447,-0.9055952,9.703507,2.2630626E-4,0.0042063366,-0.0035939468,72.32292,-23.089077,21.125088,23.12773081,72.54175815,24.996891
1729838427917,-0.018879753,-0.9494015,9.723246,2.2630626E-4,0.0042063366,-0.0035939468,72.32292,-23.089077,21.125088,23.12773081,72.54175815,24.996891
1729838427961,-0.018879753,-0.9494015,9.723246,-0.0056221704,0.0014713887,-6.149579E-4,72.32292,-23.089077,21.125088,23.12773081,72.54175815,24.996891
1729838428036,0.014567198,-0.94652027,9.6887865,-0.0056221704,0.0014713887,-6.149579E-4,72.32292,-23.089077,21.125088,23.12773081,72.54175815,24.996891
1729838428037,0.10808451,-0.9522313,9.729176,-0.0056221704,0.0014713887,-6.149579E-4,72.32292,-23.089077,21.125088,23.12773081,72.54175815,24.996891
1729838428037,0.1905554,-0.99891376,9.742823,-0.0056221704,0.0014713887,-6.149579E-4,72.32292,-23.089077,21.125088,23.12773081,72.54175815,24.996891
1729838428037,0.24408942,-1.0531292,9.8377285,-0.0056221704,0.0014713887,-6.149579E-4,72.32292,-23.089077,21.125088,23.12773081,72.54175815,24.996891
1729838428038,0.28524166,-1.0205294,9.8552685,-0.0056221704,0.0014713887,-6.149579E-4,72.32292,-23.089077,21.125088,23.12773081,72.54175815,24.996891
1729838428038,0.4113639,-1.0371614,9.814983,-0.0056221704,0.0014713887,-6.149579E-4,72.32292,-23.089077,21.125088,23.12773081,72.54175815,24.996891
1729838428038,0.4113639,-1.0371614,9.814983,-0.0056221704,0.0014713887,-6.149579E-4,72.28834,-23.016262,21.14507,23.12773081,72.54175815,24.996891
1729838428168,0.4113639,-1.0371614,9.814983,-0.0019626475,0.003131878,-0.0024467334,72.28834,-23.016262,21.14507,23.12773081,72.54175815,24.996891
1729838428185,0.21459457,-0.9895696,9.758588,-0.0019626475,0.003131878,-0.0024467334,72.28834,-23.016262,21.14507,23.12773081,72.54175815,24.996891
1729838428185,0.4236399,-1.0966209,9.635345,-0.0019626475,0.003131878,-0.0024467334,72.28834,-23.016262,21.14507,23.12773081,72.54175815,24.996891
1729838428185,0.3653526,-1.0189519,9.72088,-0.0019626475,0.003131878,-0.0024467334,72.28834,-23.016262,21.14507,23.12773081,72.54175815,24.996891
1729838428186,0.32745656,-1.0295584,9.799835,-0.0019626475,0.003131878,-0.0024467334,72.28834,-23.016262,21.14507,23.12773081,72.54175815,24.996891
1729838428186,0.40804705,-1.0204563,9.81957,-0.0019626475,0.003131878,-0.0024467334,72.28834,-23.016262,21.14507,23.12773081,72.54175815,24.996891
1729838428186,0.30897003,-1.0192764,9.899844,-0.0019626475,0.003131878,-0.0024467334,72.28834,-23.016262,21.14507,23.12773081,72.54175815,24.996891
1729838428186,0.35700658,-1.0032576,9.797763,-0.0019626475,0.003131878,-0.0024467334,72.28834,-23.016262,21.14507,23.12773081,72.54175815,24.996891
1729838428239,0.35700658,-1.0032576,9.797763,-0.0019626475,0.003131878,-0.0024467334,72.24567,-22.95051,21.168556,23.12773081,72.54175815,24.996891
1729838428375,0.35700658,-1.0032576,9.797763,0.0022783298,0.0048573315,6.0824514E-4,72.24567,-22.95051,21.168556,23.12773081,72.54175815,24.996891
1729838428387,0.3005604,-0.9844606,9.736916,0.0022783298,0.0048573315,6.0824514E-4,72.24567,-22.95051,21.168556,23.12773081,72.54175815,24.996891
1729838428387,0.37348926,-0.9754051,9.749374,0.0022783298,0.0048573315,6.0824514E-4,72.24567,-22.95051,21.168556,23.12773081,72.54175815,24.996891
1729838428387,0.3045342,-0.99878883,9.8058815,0.0022783298,0.0048573315,6.0824514E-4,72.24567,-22.95051,21.168556,23.12773081,72.54175815,24.996891
1729838428388,0.22005805,-0.9958407,9.775593,0.0022783298,0.0048573315,6.0824514E-4,72.24567,-22.95051,21.168556,23.12773081,72.54175815,24.996891
1729838428388,0.22079223,-0.92397076,9.804005,0.0022783298,0.0048573315,6.0824514E-4,72.24567,-22.95051,21.168556,23.12773081,72.54175815,24.996891
1729838428388,0.21180828,-0.9698447,9.755787,0.0022783298,0.0048573315,6.0824514E-4,72.24567,-22.95051,21.168556,23.12773081,72.54175815,24.996891
1729838428389,0.11620633,-1.0145597,9.812925,0.0022783298,0.0048573315,6.0824514E-4,72.24567,-22.95051,21.168556,23.12773081,72.54175815,24.996891
1729838428389,0.11916648,-1.0128843,9.922524,0.0022783298,0.0048573315,6.0824514E-4,72.24567,-22.95051,21.168556,23.12773081,72.54175815,24.996891
1729838428389,0.043289293,-1.0129795,10.063205,0.0022783298,0.0048573315,6.0824514E-4,72.24567,-22.95051,21.168556,23.12773081,72.54175815,24.996891
1729838428440,0.043289293,-1.0129795,10.063205,0.0022783298,0.0048573315,6.0824514E-4,72.20403,-22.901659,21.202345,23.12773081,72.54175815,24.996891
1729838428580,0.043289293,-1.0129795,10.063205,3.260452E-4,1.5959027E-4,-4.6024422E-4,72.20403,-22.901659,21.202345,23.12773081,72.54175815,24.996891
1729838428588,0.10378401,-1.0020487,10.0624485,3.260452E-4,1.5959027E-4,-4.6024422E-4,72.20403,-22.901659,21.202345,23.12773081,72.54175815,24.996891
1729838428588,0.078241564,-1.0227358,10.012672,3.260452E-4,1.5959027E-4,-4.6024422E-4,72.20403,-22.901659,21.202345,23.12773081,72.54175815,24.996891
1729838428588,0.056611195,-1.0115287,9.981226,3.260452E-4,1.5959027E-4,-4.6024422E-4,72.20403,-22.901659,21.202345,23.12773081,72.54175815,24.996891
1729838428589,0.042058647,-0.9897615,9.963127,3.260452E-4,1.5959027E-4,-4.6024422E-4,72.20403,-22.901659,21.202345,23.12773081,72.54175815,24.996891
1729838428589,0.20497301,-0.9901742,9.959775,3.260452E-4,1.5959027E-4,-4.6024422E-4,72.20403,-22.901659,21.202345,23.12773081,72.54175815,24.996891
1729838428589,0.19364941,-0.95844054,9.9362755,3.260452E-4,1.5959027E-4,-4.6024422E-4,72.20403,-22.901659,21.202345,23.12773081,72.54175815,24.996891
1729838428590,0.21426153,-0.92886615,9.8970175,3.260452E-4,1.5959027E-4,-4.6024422E-4,72.20403,-22.901659,21.202345,23.12773081,72.54175815,24.996891
1729838428590,0.31174827,-0.9261439,9.848861,3.260452E-4,1.5959027E-4,-4.6024422E-4,72.20403,-22.901659,21.202345,23.12773081,72.54175815,24.996891
1729838428590,0.39177155,-0.93832296,9.725151,3.260452E-4,1.5959027E-4,-4.6024422E-4,72.20403,-22.901659,21.202345,23.12773081,72.54175815,24.996891
1729838428639,0.39177155,-0.93832296,9.725151,3.260452E-4,1.5959027E-4,-4.6024422E-4,72.13698,-22.862577,21.236876,23.12773081,72.54175815,24.996891
1729838428649,0.39177155,-0.93832296,9.725151,3.260452E-4,1.5959027E-4,-4.6024422E-4,72.13698,-22.862577,21.236876,23.12766617,72.54175636,25.702335
1729838428654,0.3842448,-0.9213863,9.652504,3.260452E-4,1.5959027E-4,-4.6024422E-4,72.13698,-22.862577,21.236876,23.12766617,72.54175636,25.702335
1729838428655,0.42416558,-0.93834543,9.684835,3.260452E-4,1.5959027E-4,-4.6024422E-4,72.13698,-22.862577,21.236876,23.12766617,72.54175636,25.702335
1729838428655,0.42332053,-0.91410613,9.685456,3.260452E-4,1.5959027E-4,-4.6024422E-4,72.13698,-22.862577,21.236876,23.12766617,72.54175636,25.702335
1729838428655,0.41678208,-0.90189314,9.679852,3.260452E-4,1.5959027E-4,-4.6024422E-4,72.13698,-22.862577,21.236876,23.12766617,72.54175636,25.702335
1729838428785,0.4189691,-0.9432095,9.631699,3.260452E-4,1.5959027E-4,-4.6024422E-4,72.13698,-22.862577,21.236876,23.12766617,72.54175636,25.702335
1729838428786,0.4320846,-0.96286285,9.727773,3.260452E-4,1.5959027E-4,-4.6024422E-4,72.13698,-22.862577,21.236876,23.12766617,72.54175636,25.702335
1729838428786,0.27364373,-0.9538198,9.76192,3.260452E-4,1.5959027E-4,-4.6024422E-4,72.13698,-22.862577,21.236876,23.12766617,72.54175636,25.702335
1729838428786,0.24643245,-0.9901347,9.847025,3.260452E-4,1.5959027E-4,-4.6024422E-4,72.13698,-22.862577,21.236876,23.12766617,72.54175636,25.702335
1729838428786,0.19295853,-1.0339025,9.896444,3.260452E-4,1.5959027E-4,-4.6024422E-4,72.13698,-22.862577,21.236876,23.12766617,72.54175636,25.702335
1729838428787,0.24433696,-1.0699935,9.964455,3.260452E-4,1.5959027E-4,-4.6024422E-4,72.13698,-22.862577,21.236876,23.12766617,72.54175636,25.702335
1729838428787,0.24433696,-1.0699935,9.964455,-0.0052369465,0.0041593798,-4.598251E-4,72.13698,-22.862577,21.236876,23.12766617,72.54175636,25.702335
1729838428840,0.24433696,-1.0699935,9.964455,-0.0052369465,0.0041593798,-4.598251E-4,72.05708,-22.861313,21.29075,23.12766617,72.54175636,25.702335
1729838428986,0.09939775,-1.0828344,9.934277,-0.0052369465,0.0041593798,-4.598251E-4,72.05708,-22.861313,21.29075,23.12766617,72.54175636,25.702335
1729838428986,0.14077446,-1.0879625,9.92796,-0.0052369465,0.0041593798,-4.598251E-4,72.05708,-22.861313,21.29075,23.12766617,72.54175636,25.702335
1729838428986,0.15760463,-1.0885954,9.8508835,-0.0052369465,0.0041593798,-4.598251E-4,72.05708,-22.861313,21.29075,23.12766617,72.54175636,25.702335
1729838428987,0.3108096,-1.0808465,9.778694,-0.0052369465,0.0041593798,-4.598251E-4,72.05708,-22.861313,21.29075,23.12766617,72.54175636,25.702335
1729838428987,0.19445026,-1.1252556,9.695698,-0.0052369465,0.0041593798,-4.598251E-4,72.05708,-22.861313,21.29075,23.12766617,72.54175636,25.702335
1729838428987,0.278312,-1.1378118,9.733389,-0.0052369465,0.0041593798,-4.598251E-4,72.05708,-22.861313,21.29075,23.12766617,72.54175636,25.702335
1729838428987,0.24310824,-1.1315855,9.760072,-0.0052369465,0.0041593798,-4.598251E-4,72.05708,-22.861313,21.29075,23.12766617,72.54175636,25.702335
1729838428988,0.29618156,-1.1477809,9.74756,-0.0052369465,0.0041593798,-4.598251E-4,72.05708,-22.861313,21.29075,23.12766617,72.54175636,25.702335
1729838428988,0.25740388,-1.1587034,9.737908,-0.0052369465,0.0041593798,-4.598251E-4,72.05708,-22.861313,21.29075,23.12766617,72.54175636,25.702335
1729838428994,0.25740388,-1.1587034,9.737908,-0.005808349,0.001189477,-0.0020171949,72.05708,-22.861313,21.29075,23.12766617,72.54175636,25.702335
1729838429039,0.25740388,-1.1587034,9.737908,-0.005808349,0.001189477,-0.0020171949,71.98942,-22.871552,21.3526,23.12766617,72.54175636,25.702335
1729838429040,0.26646152,-1.1292759,9.625502,-0.005808349,0.001189477,-0.0020171949,71.98942,-22.871552,21.3526,23.12766617,72.54175636,25.702335
1729838429041,0.21029782,-1.0984358,9.520263,-0.005808349,0.001189477,-0.0020171949,71.98942,-22.871552,21.3526,23.12766617,72.54175636,25.702335
1729838429041,0.32496816,-1.1509322,9.484885,-0.005808349,0.001189477,-0.0020171949,71.98942,-22.871552,21.3526,23.12766617,72.54175636,25.702335
1729838429186,0.30818993,-1.1679244,9.525137,-0.005808349,0.001189477,-0.0020171949,71.98942,-22.871552,21.3526,23.12766617,72.54175636,25.702335
1729838429187,0.32982218,-1.1953964,9.6124935,-0.005808349,0.001189477,-0.0020171949,71.98942,-22.871552,21.3526,23.12766617,72.54175636,25.702335
1729838429187,0.29580194,-1.2603252,9.714323,-0.005808349,0.001189477,-0.0020171949,71.98942,-22.871552,21.3526,23.12766617,72.54175636,25.702335
1729838429187,0.2956246,-1.3087987,9.817561,-0.005808349,0.001189477,-0.0020171949,71.98942,-22.871552,21.3526,23.12766617,72.54175636,25.702335
1729838429188,0.39849377,-1.3561916,9.8952465,-0.005808349,0.001189477,-0.0020171949,71.98942,-22.871552,21.3526,23.12766617,72.54175636,25.702335
1729838429188,0.35839623,-1.3370372,9.941841,-0.005808349,0.001189477,-0.0020171949,71.98942,-22.871552,21.3526,23.12766617,72.54175636,25.702335
1729838429199,0.35839623,-1.3370372,9.941841,-0.0063876435,0.0040975353,-8.1963174E-4,71.98942,-22.871552,21.3526,23.12766617,72.54175636,25.702335
1729838429240,0.35839623,-1.3370372,9.941841,-0.0063876435,0.0040975353,-8.1963174E-4,71.93528,-22.90599,21.424582,23.12766617,72.54175636,25.702335
1729838429362,0.30274892,-1.3192012,9.959257,-0.0063876435,0.0040975353,-8.1963174E-4,71.93528,-22.90599,21.424582,23.12766617,72.54175636,25.702335
1729838429362,0.39940757,-1.3095984,9.858334,-0.0063876435,0.0040975353,-8.1963174E-4,71.93528,-22.90599,21.424582,23.12766617,72.54175636,25.702335
1729838429363,0.2687982,-1.3666421,9.779629,-0.0063876435,0.0040975353,-8.1963174E-4,71.93528,-22.90599,21.424582,23.12766617,72.54175636,25.702335
1729838429363,0.22042242,-1.3122569,9.781033,-0.0063876435,0.0040975353,-8.1963174E-4,71.93528,-22.90599,21.424582,23.12766617,72.54175636,25.702335
1729838429363,0.080026835,-1.3631456,9.825944,-0.0063876435,0.0040975353,-8.1963174E-4,71.93528,-22.90599,21.424582,23.12766617,72.54175636,25.702335
1729838429363,0.016165018,-1.3521717,9.941554,-0.0063876435,0.0040975353,-8.1963174E-4,71.93528,-22.90599,21.424582,23.12766617,72.54175636,25.702335
1729838429364,0.065933034,-1.4121861,9.955557,-0.0063876435,0.0040975353,-8.1963174E-4,71.93528,-22.90599,21.424582,23.12766617,72.54175636,25.702335
1729838429364,-0.032677334,-1.427775,9.980518,-0.0063876435,0.0040975353,-8.1963174E-4,71.93528,-22.90599,21.424582,23.12766617,72.54175636,25.702335
1729838429364,-0.05294148,-1.3913128,9.901304,-0.0063876435,0.0040975353,-8.1963174E-4,71.93528,-22.90599,21.424582,23.12766617,72.54175636,25.702335
1729838429407,-0.05294148,-1.3913128,9.901304,-0.0036745826,-0.0027389894,0.0016655806,71.93528,-22.90599,21.424582,23.12766617,72.54175636,25.702335
1729838429429,0.09032883,-1.3414452,9.685989,-0.0036745826,-0.0027389894,0.0016655806,71.93528,-22.90599,21.424582,23.12766617,72.54175636,25.702335
1729838429430,0.08207364,-1.3271544,9.521036,-0.0036745826,-0.0027389894,0.0016655806,71.93528,-22.90599,21.424582,23.12766617,72.54175636,25.702335
1729838429430,0.11351536,-1.3182342,9.542572,-0.0036745826,-0.0027389894,0.0016655806,71.93528,-22.90599,21.424582,23.12766617,72.54175636,25.702335
1729838429437,0.11351536,-1.3182342,9.542572,-0.0036745826,-0.0027389894,0.0016655806,71.884476,-22.948544,21.504665,23.12766617,72.54175636,25.702335
1729838429614,0.11351536,-1.3182342,9.542572,-0.0014430475,2.5226735E-4,-0.002454897,71.884476,-22.948544,21.504665,23.12766617,72.54175636,25.702335
1729838429628,0.32949632,-1.3238995,9.555972,-0.0014430475,2.5226735E-4,-0.002454897,71.884476,-22.948544,21.504665,23.12766617,72.54175636,25.702335
1729838429629,0.21310851,-1.2689701,9.604978,-0.0014430475,2.5226735E-4,-0.002454897,71.884476,-22.948544,21.504665,23.12766617,72.54175636,25.702335
1729838429630,0.42197245,-1.3106898,9.630544,-0.0014430475,2.5226735E-4,-0.002454897,71.884476,-22.948544,21.504665,23.12766617,72.54175636,25.702335
1729838429630,0.55652124,-1.3455012,9.745632,-0.0014430475,2.5226735E-4,-0.002454897,71.884476,-22.948544,21.504665,23.12766617,72.54175636,25.702335
1729838429630,0.5020465,-1.3485845,9.817603,-0.0014430475,2.5226735E-4,-0.002454897,71.884476,-22.948544,21.504665,23.12766617,72.54175636,25.702335
1729838429630,0.4737808,-1.3686385,9.8111725,-0.0014430475,2.5226735E-4,-0.002454897,71.884476,-22.948544,21.504665,23.12766617,72.54175636,25.702335
1729838429631,0.46109846,-1.3731961,9.797054,-0.0014430475,2.5226735E-4,-0.002454897,71.884476,-22.948544,21.504665,23.12766617,72.54175636,25.702335
1729838429632,0.46674523,-1.4004115,9.850246,-0.0014430475,2.5226735E-4,-0.002454897,71.884476,-22.948544,21.504665,23.12766617,72.54175636,25.702335
1729838429632,0.28282785,-1.3969395,9.916369,-0.0014430475,2.5226735E-4,-0.002454897,71.884476,-22.948544,21.504665,23.12766617,72.54175636,25.702335
1729838429639,0.28282785,-1.3969395,9.916369,-0.0014430475,2.5226735E-4,-0.002454897,71.83633,-23.005085,21.583733,23.12766617,72.54175636,25.702335
1729838429652,0.28282785,-1.3969395,9.916369,-0.0014430475,2.5226735E-4,-0.002454897,71.83633,-23.005085,21.583733,23.12760124,72.54175526,25.812347
1729838429653,0.29577377,-1.3896155,10.008869,-0.0014430475,2.5226735E-4,-0.002454897,71.83633,-23.005085,21.583733,23.12760124,72.54175526,25.812347
1729838429822,0.29577377,-1.3896155,10.008869,-0.0015820434,-0.0027608802,5.1936135E-5,71.83633,-23.005085,21.583733,23.12760124,72.54175526,25.812347
1729838429827,0.18493405,-1.4189309,10.053198,-0.0015820434,-0.0027608802,5.1936135E-5,71.83633,-23.005085,21.583733,23.12760124,72.54175526,25.812347
1729838429827,0.117917314,-1.4163014,10.066169,-0.0015820434,-0.0027608802,5.1936135E-5,71.83633,-23.005085,21.583733,23.12760124,72.54175526,25.812347
1729838429828,0.12017633,-1.4214959,10.094133,-0.0015820434,-0.0027608802,5.1936135E-5,71.83633,-23.005085,21.583733,23.12760124,72.54175526,25.812347
1729838429828,0.06778611,-1.4249337,10.077381,-0.0015820434,-0.0027608802,5.1936135E-5,71.83633,-23.005085,21.583733,23.12760124,72.54175526,25.812347
1729838429828,0.08701056,-1.3895183,9.956422,-0.0015820434,-0.0027608802,5.1936135E-5,71.83633,-23.005085,21.583733,23.12760124,72.54175526,25.812347
1729838429828,0.13541107,-1.3920534,9.670023,-0.0015820434,-0.0027608802,5.1936135E-5,71.83633,-23.005085,21.583733,23.12760124,72.54175526,25.812347
1729838429829,0.08188817,-1.4043707,9.600506,-0.0015820434,-0.0027608802,5.1936135E-5,71.83633,-23.005085,21.583733,23.12760124,72.54175526,25.812347
1729838429829,0.34822252,-1.3733072,9.579349,-0.0015820434,-0.0027608802,5.1936135E-5,71.83633,-23.005085,21.583733,23.12760124,72.54175526,25.812347
1729838429837,0.34822252,-1.3733072,9.579349,-0.0015820434,-0.0027608802,5.1936135E-5,71.80156,-23.06532,21.650738,23.12760124,72.54175526,25.812347
1729838429995,0.4141314,-1.338287,9.627867,-0.0015820434,-0.0027608802,5.1936135E-5,71.80156,-23.06532,21.650738,23.12760124,72.54175526,25.812347
1729838429995,0.29074678,-1.3602808,9.596212,-0.0015820434,-0.0027608802,5.1936135E-5,71.80156,-23.06532,21.650738,23.12760124,72.54175526,25.812347
1729838429995,0.47415286,-1.3942666,9.5276985,-0.0015820434,-0.0027608802,5.1936135E-5,71.80156,-23.06532,21.650738,23.12760124,72.54175526,25.812347
1729838429995,0.49441704,-1.4258821,9.614543,-0.0015820434,-0.0027608802,5.1936135E-5,71.80156,-23.06532,21.650738,23.12760124,72.54175526,25.812347
1729838429996,0.40319067,-1.4467478,9.684616,-0.0015820434,-0.0027608802,5.1936135E-5,71.80156,-23.06532,21.650738,23.12760124,72.54175526,25.812347
1729838429996,0.34480578,-1.4567404,9.707893,-0.0015820434,-0.0027608802,5.1936135E-5,71.80156,-23.06532,21.650738,23.12760124,72.54175526,25.812347
1729838429996,0.3655755,-1.4388919,9.745897,-0.0015820434,-0.0027608802,5.1936135E-5,71.80156,-23.06532,21.650738,23.12760124,72.54175526,25.812347
1729838429997,0.33864188,-1.5004656,9.808962,-0.0015820434,-0.0027608802,5.1936135E-5,71.80156,-23.06532,21.650738,23.12760124,72.54175526,25.812347
1729838430026,0.33864188,-1.5004656,9.808962,-0.003525834,9.372493E-4,-0.0018215886,71.80156,-23.06532,21.650738,23.12760124,72.54175526,25.812347
1729838430039,0.33864188,-1.5004656,9.808962,-0.003525834,9.372493E-4,-0.0018215886,71.77375,-23.106005,21.65559,23.12760124,72.54175526,25.812347
1729838430046,0.36889958,-1.4986379,9.865036,-0.003525834,9.372493E-4,-0.0018215886,71.77375,-23.106005,21.65559,23.12760124,72.54175526,25.812347
1729838430047,0.30313563,-1.5255306,9.983715,-0.003525834,9.372493E-4,-0.0018215886,71.77375,-23.106005,21.65559,23.12760124,72.54175526,25.812347
1729838430155,0.27636695,-1.5655892,9.999216,-0.003525834,9.372493E-4,-0.0018215886,71.77375,-23.106005,21.65559,23.12760124,72.54175526,25.812347
1729838430155,0.329967,-1.5585134,9.971417,-0.003525834,9.372493E-4,-0.0018215886,71.77375,-23.106005,21.65559,23.12760124,72.54175526,25.812347
1729838430156,0.17914803,-1.5853952,9.959588,-0.003525834,9.372493E-4,-0.0018215886,71.77375,-23.106005,21.65559,23.12760124,72.54175526,25.812347
1729838430156,0.12513298,-1.630111,9.926674,-0.003525834,9.372493E-4,-0.0018215886,71.77375,-23.106005,21.65559,23.12760124,72.54175526,25.812347
1729838430156,0.3262281,-1.6364518,9.912067,-0.003525834,9.372493E-4,-0.0018215886,71.77375,-23.106005,21.65559,23.12760124,72.54175526,25.812347
1729838430234,0.3262281,-1.6364518,9.912067,-0.0019959998,-7.4867974E-5,-0.0015489006,71.77375,-23.106005,21.65559,23.12760124,72.54175526,25.812347
1729838430237,0.3262281,-1.6364518,9.912067,-0.0019959998,-7.4867974E-5,-0.0015489006,71.75525,-23.149803,21.614471,23.12760124,72.54175526,25.812347
1729838430314,0.31494063,-1.6831597,9.893085,-0.0019959998,-7.4867974E-5,-0.0015489006,71.75525,-23.149803,21.614471,23.12760124,72.54175526,25.812347
1729838430314,0.24082588,-1.6684821,9.882923,-0.0019959998,-7.4867974E-5,-0.0015489006,71.75525,-23.149803,21.614471,23.12760124,72.54175526,25.812347
1729838430314,0.26612034,-1.7365406,9.76281,-0.0019959998,-7.4867974E-5,-0.0015489006,71.75525,-23.149803,21.614471,23.12760124,72.54175526,25.812347
1729838430315,0.31602693,-1.7564111,9.741974,-0.0019959998,-7.4867974E-5,-0.0015489006,71.75525,-23.149803,21.614471,23.12760124,72.54175526,25.812347
1729838430315,0.35068798,-1.7427561,9.787279,-0.0019959998,-7.4867974E-5,-0.0015489006,71.75525,-23.149803,21.614471,23.12760124,72.54175526,25.812347
1729838430315,0.44457835,-1.7697585,9.77794,-0.0019959998,-7.4867974E-5,-0.0015489006,71.75525,-23.149803,21.614471,23.12760124,72.54175526,25.812347
1729838430315,0.3391522,-1.7577411,9.782911,-0.0019959998,-7.4867974E-5,-0.0015489006,71.75525,-23.149803,21.614471,23.12760124,72.54175526,25.812347
1729838430316,0.40687513,-1.7366416,9.7788725,-0.0019959998,-7.4867974E-5,-0.0015489006,71.75525,-23.149803,21.614471,23.12760124,72.54175526,25.812347
1729838430439,0.40687513,-1.7366416,9.7788725,-0.0019959998,-7.4867974E-5,-0.0015489006,71.7742,-23.158592,21.559078,23.12760124,72.54175526,25.812347
1729838430440,0.40687513,-1.7366416,9.7788725,0.00472565,0.0026279106,-0.0023692204,71.7742,-23.158592,21.559078,23.12760124,72.54175526,25.812347
1729838430474,0.3289697,-1.7092338,9.717615,0.00472565,0.0026279106,-0.0023692204,71.7742,-23.158592,21.559078,23.12760124,72.54175526,25.812347
1729838430475,0.2549205,-1.7313354,9.717064,0.00472565,0.0026279106,-0.0023692204,71.7742,-23.158592,21.559078,23.12760124,72.54175526,25.812347
1729838430475,0.17330828,-1.7183884,9.699156,0.00472565,0.0026279106,-0.0023692204,71.7742,-23.158592,21.559078,23.12760124,72.54175526,25.812347
1729838430475,0.33425987,-1.7118595,9.650612,0.00472565,0.0026279106,-0.0023692204,71.7742,-23.158592,21.559078,23.12760124,72.54175526,25.812347
1729838430475,0.35486555,-1.7207539,9.635106,0.00472565,0.0026279106,-0.0023692204,71.7742,-23.158592,21.559078,23.12760124,72.54175526,25.812347
1729838430476,0.31583664,-1.7458156,9.690299,0.00472565,0.0026279106,-0.0023692204,71.7742,-23.158592,21.559078,23.12760124,72.54175526,25.812347
1729838430476,0.2701369,-1.7673008,9.695929,0.00472565,0.0026279106,-0.0023692204,71.7742,-23.158592,21.559078,23.12760124,72.54175526,25.812347
1729838430635,0.25248042,-1.7564929,9.685119,0.00472565,0.0026279106,-0.0023692204,71.7742,-23.158592,21.559078,23.12760124,72.54175526,25.812347
1729838430635,0.26108706,-1.745334,9.664028,0.00472565,0.0026279106,-0.0023692204,71.7742,-23.158592,21.559078,23.12760124,72.54175526,25.812347
1729838430635,0.20025548,-1.7912027,9.72265,0.00472565,0.0026279106,-0.0023692204,71.7742,-23.158592,21.559078,23.12760124,72.54175526,25.812347
1729838430636,0.2855883,-1.8170102,9.761291,0.00472565,0.0026279106,-0.0023692204,71.7742,-23.158592,21.559078,23.12760124,72.54175526,25.812347
1729838430636,0.20238887,-1.821744,9.819721,0.00472565,0.0026279106,-0.0023692204,71.7742,-23.158592,21.559078,23.12760124,72.54175526,25.812347
1729838430636,0.2773648,-1.8814033,9.881302,0.00472565,0.0026279106,-0.0023692204,71.7742,-23.158592,21.559078,23.12760124,72.54175526,25.812347
1729838430636,0.29583004,-1.928772,9.94947,0.00472565,0.0026279106,-0.0023692204,71.7742,-23.158592,21.559078,23.12760124,72.54175526,25.812347
1729838430637,0.3942314,-1.9606848,9.953634,0.00472565,0.0026279106,-0.0023692204,71.7742,-23.158592,21.559078,23.12760124,72.54175526,25.812347
1729838430638,0.3942314,-1.9606848,9.953634,0.00472565,0.0026279106,-0.0023692204,71.80811,-23.169374,21.522263,23.12760124,72.54175526,25.812347
1729838430646,0.3942314,-1.9606848,9.953634,-0.0028473628,0.00268265,-0.004186119,71.80811,-23.169374,21.522263,23.12760124,72.54175526,25.812347
1729838430650,0.3942314,-1.9606848,9.953634,-0.0028473628,0.00268265,-0.004186119,71.80811,-23.169374,21.522263,23.12753965,72.54175377,24.610367
1729838430654,0.49819678,-1.9329747,9.885061,-0.0028473628,0.00268265,-0.004186119,71.80811,-23.169374,21.522263,23.12753965,72.54175377,24.610367
1729838430795,0.41698214,-1.9761307,9.856764,-0.0028473628,0.00268265,-0.004186119,71.80811,-23.169374,21.522263,23.12753965,72.54175377,24.610367
1729838430795,0.2669456,-2.0530086,9.830537,-0.0028473628,0.00268265,-0.004186119,71.80811,-23.169374,21.522263,23.12753965,72.54175377,24.610367
1729838430796,0.093676075,-2.0788577,9.77103,-0.0028473628,0.00268265,-0.004186119,71.80811,-23.169374,21.522263,23.12753965,72.54175377,24.610367
1729838430796,0.3103946,-2.113535,9.762668,-0.0028473628,0.00268265,-0.004186119,71.80811,-23.169374,21.522263,23.12753965,72.54175377,24.610367
1729838430796,0.1596616,-2.1887743,9.774761,-0.0028473628,0.00268265,-0.004186119,71.80811,-23.169374,21.522263,23.12753965,72.54175377,24.610367
1729838430796,0.051158957,-2.305915,9.79281,-0.0028473628,0.00268265,-0.004186119,71.80811,-23.169374,21.522263,23.12753965,72.54175377,24.610367
1729838430839,0.051158957,-2.305915,9.79281,-0.0028473628,0.00268265,-0.004186119,71.85024,-23.16675,21.45906,23.12753965,72.54175377,24.610367
1729838430853,0.051158957,-2.305915,9.79281,-0.005362757,6.800445E-4,-0.002066079,71.85024,-23.16675,21.45906,23.12753965,72.54175377,24.610367
1729838430955,0.22314061,-2.3522499,9.818736,-0.005362757,6.800445E-4,-0.002066079,71.85024,-23.16675,21.45906,23.12753965,72.54175377,24.610367
1729838430955,0.20591033,-2.406905,9.768649,-0.005362757,6.800445E-4,-0.002066079,71.85024,-23.16675,21.45906,23.12753965,72.54175377,24.610367
1729838430956,0.25278413,-2.4596019,9.723674,-0.005362757,6.800445E-4,-0.002066079,71.85024,-23.16675,21.45906,23.12753965,72.54175377,24.610367
1729838430956,0.29243672,-2.4851294,9.687215,-0.005362757,6.800445E-4,-0.002066079,71.85024,-23.16675,21.45906,23.12753965,72.54175377,24.610367
1729838430956,0.20906402,-2.4932284,9.645126,-0.005362757,6.800445E-4,-0.002066079,71.85024,-23.16675,21.45906,23.12753965,72.54175377,24.610367
1729838430957,0.25411066,-2.4724295,9.58992,-0.005362757,6.800445E-4,-0.002066079,71.85024,-23.16675,21.45906,23.12753965,72.54175377,24.610367
1729838430957,0.27531248,-2.5024505,9.584639,-0.005362757,6.800445E-4,-0.002066079,71.85024,-23.16675,21.45906,23.12753965,72.54175377,24.610367
1729838430957,0.1574384,-2.5080426,9.615707,-0.005362757,6.800445E-4,-0.002066079,71.85024,-23.16675,21.45906,23.12753965,72.54175377,24.610367
1729838431039,0.1574384,-2.5080426,9.615707,-0.005362757,6.800445E-4,-0.002066079,71.90645,-23.17215,21.367249,23.12753965,72.54175377,24.610367
1729838431042,0.15251106,-2.5257964,9.526665,-0.005362757,6.800445E-4,-0.002066079,71.90645,-23.17215,21.367249,23.12753965,72.54175377,24.610367
1729838431042,0.26174968,-2.4956126,9.453875,-0.005362757,6.800445E-4,-0.002066079,71.90645,-23.17215,21.367249,23.12753965,72.54175377,24.610367
1729838431042,2.7790666E-5,-2.5666997,9.477956,-0.005362757,6.800445E-4,-0.002066079,71.90645,-23.17215,21.367249,23.12753965,72.54175377,24.610367
1729838431043,0.11643304,-2.5158923,9.572475,-0.005362757,6.800445E-4,-0.002066079,71.90645,-23.17215,21.367249,23.12753965,72.54175377,24.610367
1729838431058,0.11643304,-2.5158923,9.572475,0.0035594054,0.002895865,-7.060229E-4,71.90645,-23.17215,21.367249,23.12753965,72.54175377,24.610367
1729838431062,0.24879953,-2.590102,9.658021,0.0035594054,0.002895865,-7.060229E-4,71.90645,-23.17215,21.367249,23.12753965,72.54175377,24.610367
1729838431240,0.24879953,-2.590102,9.658021,0.0035594054,0.002895865,-7.060229E-4,71.98141,-23.16522,21.26005,23.12753965,72.54175377,24.610367
1729838431252,0.14328685,-2.5175054,9.666517,0.0035594054,0.002895865,-7.060229E-4,71.98141,-23.16522,21.26005,23.12753965,72.54175377,24.610367
1729838431252,0.22876711,-2.6552808,9.708728,0.0035594054,0.002895865,-7.060229E-4,71.98141,-23.16522,21.26005,23.12753965,72.54175377,24.610367
1729838431253,0.14604458,-2.5756307,9.777552,0.0035594054,0.002895865,-7.060229E-4,71.98141,-23.16522,21.26005,23.12753965,72.54175377,24.610367
1729838431253,0.057134748,-2.574842,9.793368,0.0035594054,0.002895865,-7.060229E-4,71.98141,-23.16522,21.26005,23.12753965,72.54175377,24.610367
1729838431253,0.23833,-2.5058956,9.831984,0.0035594054,0.002895865,-7.060229E-4,71.98141,-23.16522,21.26005,23.12753965,72.54175377,24.610367
1729838431254,0.11313656,-2.5151057,9.857014,0.0035594054,0.002895865,-7.060229E-4,71.98141,-23.16522,21.26005,23.12753965,72.54175377,24.610367
1729838431254,0.19866483,-2.4695923,9.891514,0.0035594054,0.002895865,-7.060229E-4,71.98141,-23.16522,21.26005,23.12753965,72.54175377,24.610367
1729838431254,0.109879,-2.349672,9.918396,0.0035594054,0.002895865,-7.060229E-4,71.98141,-23.16522,21.26005,23.12753965,72.54175377,24.610367
1729838431254,0.13193113,-2.2781427,9.891807,0.0035594054,0.002895865,-7.060229E-4,71.98141,-23.16522,21.26005,23.12753965,72.54175377,24.610367
1729838431265,0.13193113,-2.2781427,9.891807,0.0063599967,0.0068981773,0.0021535298,71.98141,-23.16522,21.26005,23.12753965,72.54175377,24.610367
1729838431436,0.061277688,-2.1335812,9.902958,0.0063599967,0.0068981773,0.0021535298,71.98141,-23.16522,21.26005,23.12753965,72.54175377,24.610367
1729838431436,0.14509398,-2.0182908,9.843325,0.0063599967,0.0068981773,0.0021535298,71.98141,-23.16522,21.26005,23.12753965,72.54175377,24.610367
1729838431437,0.008278526,-1.8689897,9.710195,0.0063599967,0.0068981773,0.0021535298,71.98141,-23.16522,21.26005,23.12753965,72.54175377,24.610367
1729838431437,-0.023287462,-1.7792199,9.67021,0.0063599967,0.0068981773,0.0021535298,71.98141,-23.16522,21.26005,23.12753965,72.54175377,24.610367
1729838431437,0.046694085,-1.7296573,9.643487,0.0063599967,0.0068981773,0.0021535298,71.98141,-23.16522,21.26005,23.12753965,72.54175377,24.610367
1729838431438,0.0915527,-1.709389,9.674631,0.0063599967,0.0068981773,0.0021535298,71.98141,-23.16522,21.26005,23.12753965,72.54175377,24.610367
1729838431438,-0.013138734,-1.609904,9.684233,0.0063599967,0.0068981773,0.0021535298,71.98141,-23.16522,21.26005,23.12753965,72.54175377,24.610367
1729838431438,0.009828004,-1.5540051,9.696101,0.0063599967,0.0068981773,0.0021535298,71.98141,-23.16522,21.26005,23.12753965,72.54175377,24.610367
1729838431438,0.009828004,-1.5540051,9.696101,0.0063599967,0.0068981773,0.0021535298,72.05263,-23.152176,21.15929,23.12753965,72.54175377,24.610367
1729838431473,0.009828004,-1.5540051,9.696101,0.0049047377,0.006129407,0.0067013716,72.05263,-23.152176,21.15929,23.12753965,72.54175377,24.610367
1729838431596,-0.017022949,-1.582267,9.667071,0.0049047377,0.006129407,0.0067013716,72.05263,-23.152176,21.15929,23.12753965,72.54175377,24.610367
1729838431597,-0.14761643,-1.5723343,9.672562,0.0049047377,0.006129407,0.0067013716,72.05263,-23.152176,21.15929,23.12753965,72.54175377,24.610367
1729838431597,-0.021064192,-1.5351956,9.710094,0.0049047377,0.006129407,0.0067013716,72.05263,-23.152176,21.15929,23.12753965,72.54175377,24.610367
1729838431597,0.09130423,-1.5717658,9.749572,0.0049047377,0.006129407,0.0067013716,72.05263,-23.152176,21.15929,23.12753965,72.54175377,24.610367
1729838431598,0.020042364,-1.6032952,9.85581,0.0049047377,0.006129407,0.0067013716,72.05263,-23.152176,21.15929,23.12753965,72.54175377,24.610367
1729838431598,0.026203386,-1.6350989,9.9546795,0.0049047377,0.006129407,0.0067013716,72.05263,-23.152176,21.15929,23.12753965,72.54175377,24.610367
1729838431598,0.12780224,-1.5604023,9.970843,0.0049047377,0.006129407,0.0067013716,72.05263,-23.152176,21.15929,23.12753965,72.54175377,24.610367
1729838431639,0.12780224,-1.5604023,9.970843,0.0049047377,0.006129407,0.0067013716,72.12835,-23.145493,21.067432,23.12753965,72.54175377,24.610367
1729838431648,0.12780224,-1.5604023,9.970843,0.0049047377,0.006129407,0.0067013716,72.12835,-23.145493,21.067432,23.12748738,72.5417542,20.860722
1729838431656,0.063358426,-1.5408444,9.939387,0.0049047377,0.006129407,0.0067013716,72.12835,-23.145493,21.067432,23.12748738,72.5417542,20.860722
1729838431656,0.07712743,-1.579874,9.859427,0.0049047377,0.006129407,0.0067013716,72.12835,-23.145493,21.067432,23.12748738,72.5417542,20.860722
1729838431656,0.2355405,-1.5704198,9.764233,0.0049047377,0.006129407,0.0067013716,72.12835,-23.145493,21.067432,23.12748738,72.5417542,20.860722
1729838431680,0.2355405,-1.5704198,9.764233,0.002121739,0.0081716515,0.0069493456,72.12835,-23.145493,21.067432,23.12748738,72.5417542,20.860722
1729838431755,0.31632876,-1.5457478,9.705185,0.002121739,0.0081716515,0.0069493456,72.12835,-23.145493,21.067432,23.12748738,72.5417542,20.860722
1729838431756,0.38251472,-1.5479045,9.704847,0.002121739,0.0081716515,0.0069493456,72.12835,-23.145493,21.067432,23.12748738,72.5417542,20.860722
1729838431756,0.25600177,-1.5434084,9.642483,0.002121739,0.0081716515,0.0069493456,72.12835,-23.145493,21.067432,23.12748738,72.5417542,20.860722
1729838431756,0.36631694,-1.519712,9.655762,0.002121739,0.0081716515,0.0069493456,72.12835,-23.145493,21.067432,23.12748738,72.5417542,20.860722
1729838431756,-0.05881098,-1.5888107,9.683134,0.002121739,0.0081716515,0.0069493456,72.12835,-23.145493,21.067432,23.12748738,72.5417542,20.860722
1729838431840,-0.05881098,-1.5888107,9.683134,0.002121739,0.0081716515,0.0069493456,72.20018,-23.140144,20.993946,23.12748738,72.5417542,20.860722
1729838431886,-0.05881098,-1.5888107,9.683134,-1.657462E-4,0.005468308,0.012828767,72.20018,-23.140144,20.993946,23.12748738,72.5417542,20.860722
1729838431914,-0.20712861,-1.58726,9.689718,-1.657462E-4,0.005468308,0.012828767,72.20018,-23.140144,20.993946,23.12748738,72.5417542,20.860722
1729838431914,-0.27924234,-1.5946337,9.647249,-1.657462E-4,0.005468308,0.012828767,72.20018,-23.140144,20.993946,23.12748738,72.5417542,20.860722
1729838431915,-0.23105091,-1.5902436,9.590662,-1.657462E-4,0.005468308,0.012828767,72.20018,-23.140144,20.993946,23.12748738,72.5417542,20.860722
1729838431915,-0.2807929,-1.671557,9.585233,-1.657462E-4,0.005468308,0.012828767,72.20018,-23.140144,20.993946,23.12748738,72.5417542,20.860722
1729838431915,-0.23348776,-1.7577841,9.663561,-1.657462E-4,0.005468308,0.012828767,72.20018,-23.140144,20.993946,23.12748738,72.5417542,20.860722
1729838431916,-0.32677034,-1.8238945,9.711388,-1.657462E-4,0.005468308,0.012828767,72.20018,-23.140144,20.993946,23.12748738,72.5417542,20.860722
1729838431916,-0.33774734,-1.6865534,9.681214,-1.657462E-4,0.005468308,0.012828767,72.20018,-23.140144,20.993946,23.12748738,72.5417542,20.860722
1729838432039,-0.33774734,-1.6865534,9.681214,-1.657462E-4,0.005468308,0.012828767,72.242645,-23.150866,20.931406,23.12748738,72.5417542,20.860722
1729838432059,-0.29544213,-1.670838,9.586847,-1.657462E-4,0.005468308,0.012828767,72.242645,-23.150866,20.931406,23.12748738,72.5417542,20.860722
1729838432059,-0.26004267,-1.7264612,9.648223,-1.657462E-4,0.005468308,0.012828767,72.242645,-23.150866,20.931406,23.12748738,72.5417542,20.860722
1729838432060,-0.1471368,-1.7414083,9.653893,-1.657462E-4,0.005468308,0.012828767,72.242645,-23.150866,20.931406,23.12748738,72.5417542,20.860722
1729838432060,-0.094499074,-1.6550212,9.685947,-1.657462E-4,0.005468308,0.012828767,72.242645,-23.150866,20.931406,23.12748738,72.5417542,20.860722
1729838432060,-0.038031947,-1.6963401,9.760045,-1.657462E-4,0.005468308,0.012828767,72.242645,-23.150866,20.931406,23.12748738,72.5417542,20.860722
1729838432061,-0.093954995,-1.7612199,9.779483,-1.657462E-4,0.005468308,0.012828767,72.242645,-23.150866,20.931406,23.12748738,72.5417542,20.860722
1729838432061,-0.0792318,-1.712027,9.818005,-1.657462E-4,0.005468308,0.012828767,72.242645,-23.150866,20.931406,23.12748738,72.5417542,20.860722
1729838432093,-0.0792318,-1.712027,9.818005,-0.0019957344,-6.649876E-4,0.016371662,72.242645,-23.150866,20.931406,23.12748738,72.5417542,20.860722
1729838432185,0.06618589,-1.6975579,9.766747,-0.0019957344,-6.649876E-4,0.016371662,72.242645,-23.150866,20.931406,23.12748738,72.5417542,20.860722
1729838432185,-0.008905746,-1.7032111,9.718802,-0.0019957344,-6.649876E-4,0.016371662,72.242645,-23.150866,20.931406,23.12748738,72.5417542,20.860722
1729838432186,0.050542425,-1.7502061,9.694803,-0.0019957344,-6.649876E-4,0.016371662,72.242645,-23.150866,20.931406,23.12748738,72.5417542,20.860722
1729838432186,0.065558575,-1.7382708,9.680868,-0.0019957344,-6.649876E-4,0.016371662,72.242645,-23.150866,20.931406,23.12748738,72.5417542,20.860722
1729838432186,0.09527838,-1.7677255,9.74988,-0.0019957344,-6.649876E-4,0.016371662,72.242645,-23.150866,20.931406,23.12748738,72.5417542,20.860722
1729838432187,0.12312204,-1.7264438,9.7939625,-0.0019957344,-6.649876E-4,0.016371662,72.242645,-23.150866,20.931406,23.12748738,72.5417542,20.860722
1729838432240,0.12312204,-1.7264438,9.7939625,-0.0019957344,-6.649876E-4,0.016371662,72.24662,-23.166943,20.866375,23.12748738,72.5417542,20.860722
1729838432299,0.12312204,-1.7264438,9.7939625,-0.0044065653,0.0062486087,0.027452651,72.24662,-23.166943,20.866375,23.12748738,72.5417542,20.860722
1729838432394,0.02635403,-1.7550335,9.776946,-0.0044065653,0.0062486087,0.027452651,72.24662,-23.166943,20.866375,23.12748738,72.5417542,20.860722
1729838432395,0.12409423,-1.740697,9.702076,-0.0044065653,0.0062486087,0.027452651,72.24662,-23.166943,20.866375,23.12748738,72.5417542,20.860722
1729838432395,-0.27460313,-1.8446814,9.683217,-0.0044065653,0.0062486087,0.027452651,72.24662,-23.166943,20.866375,23.12748738,72.5417542,20.860722
1729838432395,-0.3788052,-1.72747,9.711201,-0.0044065653,0.0062486087,0.027452651,72.24662,-23.166943,20.866375,23.12748738,72.5417542,20.860722
1729838432396,-0.23760048,-1.7607598,9.651992,-0.0044065653,0.0062486087,0.027452651,72.24662,-23.166943,20.866375,23.12748738,72.5417542,20.860722
1729838432396,-0.48810643,-1.8358463,9.654635,-0.0044065653,0.0062486087,0.027452651,72.24662,-23.166943,20.866375,23.12748738,72.5417542,20.860722
1729838432396,-0.4521003,-1.8321468,9.739422,-0.0044065653,0.0062486087,0.027452651,72.24662,-23.166943,20.866375,23.12748738,72.5417542,20.860722
1729838432396,-0.38405314,-1.8622081,9.754011,-0.0044065653,0.0062486087,0.027452651,72.24662,-23.166943,20.866375,23.12748738,72.5417542,20.860722
1729838432397,-0.5666245,-2.0793579,9.905782,-0.0044065653,0.0062486087,0.027452651,72.24662,-23.166943,20.866375,23.12748738,72.5417542,20.860722
1729838432397,-0.6408969,-1.8221304,10.124706,-0.0044065653,0.0062486087,0.027452651,72.24662,-23.166943,20.866375,23.12748738,72.5417542,20.860722
1729838432439,-0.6408969,-1.8221304,10.124706,-0.0044065653,0.0062486087,0.027452651,72.23105,-23.176054,20.82185,23.12748738,72.5417542,20.860722
1729838432505,-0.6408969,-1.8221304,10.124706,-0.0048080683,-0.0030034417,0.036714505,72.23105,-23.176054,20.82185,23.12748738,72.5417542,20.860722
1729838432555,-0.6626279,-2.116568,9.83145,-0.0048080683,-0.0030034417,0.036714505,72.23105,-23.176054,20.82185,23.12748738,72.5417542,20.860722
1729838432555,-0.53488797,-2.0652187,9.804304,-0.0048080683,-0.0030034417,0.036714505,72.23105,-23.176054,20.82185,23.12748738,72.5417542,20.860722
1729838432556,-0.5590371,-2.1154253,9.7923975,-0.0048080683,-0.0030034417,0.036714505,72.23105,-23.176054,20.82185,23.12748738,72.5417542,20.860722
1729838432556,-0.44399938,-2.093138,9.741715,-0.0048080683,-0.0030034417,0.036714505,72.23105,-23.176054,20.82185,23.12748738,72.5417542,20.860722
1729838432556,-0.46586758,-2.1987777,9.66456,-0.0048080683,-0.0030034417,0.036714505,72.23105,-23.176054,20.82185,23.12748738,72.5417542,20.860722
1729838432556,-0.4333521,-2.144745,9.604391,-0.0048080683,-0.0030034417,0.036714505,72.23105,-23.176054,20.82185,23.12748738,72.5417542,20.860722
1729838432557,-0.39477742,-2.16122,9.539387,-0.0048080683,-0.0030034417,0.036714505,72.23105,-23.176054,20.82185,23.12748738,72.5417542,20.860722
1729838432642,-0.39477742,-2.16122,9.539387,-0.0048080683,-0.0030034417,0.036714505,72.16984,-23.179594,20.76748,23.12748738,72.5417542,20.860722
1729838432648,-0.39477742,-2.16122,9.539387,-0.0048080683,-0.0030034417,0.036714505,72.16984,-23.179594,20.76748,23.12743858,72.5417549,19.47701
1729838432651,-0.33077708,-2.1556163,9.569456,-0.0048080683,-0.0030034417,0.036714505,72.16984,-23.179594,20.76748,23.12743858,72.5417549,19.47701
1729838432651,-0.2792179,-2.1894183,9.560969,-0.0048080683,-0.0030034417,0.036714505,72.16984,-23.179594,20.76748,23.12743858,72.5417549,19.47701
1729838432652,-0.36598653,-2.2040174,9.555017,-0.0048080683,-0.0030034417,0.036714505,72.16984,-23.179594,20.76748,23.12743858,72.5417549,19.47701
1729838432652,-0.20916007,-2.186265,9.568202,-0.0048080683,-0.0030034417,0.036714505,72.16984,-23.179594,20.76748,23.12743858,72.5417549,19.47701
1729838432652,-0.20585251,-2.214416,9.549677,-0.0048080683,-0.0030034417,0.036714505,72.16984,-23.179594,20.76748,23.12743858,72.5417549,19.47701
1729838432711,-0.20585251,-2.214416,9.549677,-0.0019222308,-0.005762509,0.045987125,72.16984,-23.179594,20.76748,23.12743858,72.5417549,19.47701
1729838432837,-0.20585251,-2.214416,9.549677,-0.0019222308,-0.005762509,0.045987125,72.04962,-23.178677,20.705235,23.12743858,72.5417549,19.47701
1729838432852,-0.30597818,-2.218871,9.570629,-0.0019222308,-0.005762509,0.045987125,72.04962,-23.178677,20.705235,23.12743858,72.5417549,19.47701
1729838432853,-0.21283837,-2.2089157,9.631778,-0.0019222308,-0.005762509,0.045987125,72.04962,-23.178677,20.705235,23.12743858,72.5417549,19.47701
1729838432853,-0.23894471,-2.2129154,9.673519,-0.0019222308,-0.005762509,0.045987125,72.04962,-23.178677,20.705235,23.12743858,72.5417549,19.47701
1729838432853,-0.2616244,-2.22784,9.712416,-0.0019222308,-0.005762509,0.045987125,72.04962,-23.178677,20.705235,23.12743858,72.5417549,19.47701
1729838432854,-0.23095456,-2.1907268,9.729535,-0.0019222308,-0.005762509,0.045987125,72.04962,-23.178677,20.705235,23.12743858,72.5417549,19.47701
1729838432854,-0.32414556,-2.1919036,9.704825,-0.0019222308,-0.005762509,0.045987125,72.04962,-23.178677,20.705235,23.12743858,72.5417549,19.47701
1729838432854,-0.32559764,-2.1268032,9.722744,-0.0019222308,-0.005762509,0.045987125,72.04962,-23.178677,20.705235,23.12743858,72.5417549,19.47701
1729838432854,-0.3395609,-2.0638356,9.731457,-0.0019222308,-0.005762509,0.045987125,72.04962,-23.178677,20.705235,23.12743858,72.5417549,19.47701
1729838432855,-0.39739156,-1.9537606,9.716891,-0.0019222308,-0.005762509,0.045987125,72.04962,-23.178677,20.705235,23.12743858,72.5417549,19.47701
1729838432920,-0.39739156,-1.9537606,9.716891,0.0030437007,0.0024454808,0.062110044,72.04962,-23.178677,20.705235,23.12743858,72.5417549,19.47701
1729838433035,-0.42702597,-1.8709648,9.727372,0.0030437007,0.0024454808,0.062110044,72.04962,-23.178677,20.705235,23.12743858,72.5417549,19.47701
1729838433035,-0.50935763,-1.7836713,9.732168,0.0030437007,0.0024454808,0.062110044,72.04962,-23.178677,20.705235,23.12743858,72.5417549,19.47701
1729838433035,-0.5459109,-1.6798583,9.757779,0.0030437007,0.0024454808,0.062110044,72.04962,-23.178677,20.705235,23.12743858,72.5417549,19.47701
1729838433035,-0.566659,-1.6045847,9.778507,0.0030437007,0.0024454808,0.062110044,72.04962,-23.178677,20.705235,23.12743858,72.5417549,19.47701
1729838433036,-0.73376596,-1.5516639,9.813036,0.0030437007,0.0024454808,0.062110044,72.04962,-23.178677,20.705235,23.12743858,72.5417549,19.47701
1729838433036,-0.8207915,-1.5186592,9.857529,0.0030437007,0.0024454808,0.062110044,72.04962,-23.178677,20.705235,23.12743858,72.5417549,19.47701
1729838433036,-0.8878995,-1.4643792,9.891567,0.0030437007,0.0024454808,0.062110044,72.04962,-23.178677,20.705235,23.12743858,72.5417549,19.47701
1729838433036,-1.0024832,-1.45601,9.884222,0.0030437007,0.0024454808,0.062110044,72.04962,-23.178677,20.705235,23.12743858,72.5417549,19.47701
1729838433040,-1.0024832,-1.45601,9.884222,0.0030437007,0.0024454808,0.062110044,71.88595,-23.185442,20.636688,23.12743858,72.5417549,19.47701
1729838433065,-1.051558,-1.4416575,9.849991,0.0030437007,0.0024454808,0.062110044,71.88595,-23.185442,20.636688,23.12743858,72.5417549,19.47701
1729838433065,-1.107089,-1.4442933,9.8038225,0.0030437007,0.0024454808,0.062110044,71.88595,-23.185442,20.636688,23.12743858,72.5417549,19.47701
1729838433126,-1.107089,-1.4442933,9.8038225,-0.0016272897,-0.001342285,0.0868897,71.88595,-23.185442,20.636688,23.12743858,72.5417549,19.47701
1729838433126,-1.107089,-1.4442933,9.8038225,-0.0016272897,-0.001342285,0.0868897,71.88595,-23.185442,20.636688,23.1273397,72.5418365,103.53348
1729838433195,-1.1759206,-1.4151754,9.75253,-0.0016272897,-0.001342285,0.0868897,71.88595,-23.185442,20.636688,23.1273397,72.5418365,103.53348
1729838433196,-1.2543159,-1.4304057,9.73698,-0.0016272897,-0.001342285,0.0868897,71.88595,-23.185442,20.636688,23.1273397,72.5418365,103.53348
1729838433196,-1.1525255,-1.4553916,9.744999,-0.0016272897,-0.001342285,0.0868897,71.88595,-23.185442,20.636688,23.1273397,72.5418365,103.53348
1729838433196,-1.2397873,-1.4489396,9.7845545,-0.0016272897,-0.001342285,0.0868897,71.88595,-23.185442,20.636688,23.1273397,72.5418365,103.53348
1729838433197,-1.1465259,-1.4809864,9.807226,-0.0016272897,-0.001342285,0.0868897,71.88595,-23.185442,20.636688,23.1273397,72.5418365,103.53348
1729838433197,-1.1673903,-1.5172718,9.872382,-0.0016272897,-0.001342285,0.0868897,71.88595,-23.185442,20.636688,23.1273397,72.5418365,103.53348
1729838433238,-1.1673903,-1.5172718,9.872382,-0.0016272897,-0.001342285,0.0868897,71.646255,-23.198353,20.619352,23.1273397,72.5418365,103.53348
1729838433332,-1.1673903,-1.5172718,9.872382,-0.0024013883,-0.012099937,0.10714103,71.646255,-23.198353,20.619352,23.1273397,72.5418365,103.53348
1729838433354,-1.0777209,-1.5088525,9.944965,-0.0024013883,-0.012099937,0.10714103,71.646255,-23.198353,20.619352,23.1273397,72.5418365,103.53348
1729838433354,-0.9720073,-1.5500932,9.933401,-0.0024013883,-0.012099937,0.10714103,71.646255,-23.198353,20.619352,23.1273397,72.5418365,103.53348
1729838433355,-0.992242,-1.5680108,9.895675,-0.0024013883,-0.012099937,0.10714103,71.646255,-23.198353,20.619352,23.1273397,72.5418365,103.53348
1729838433355,-0.9088884,-1.5829432,9.897557,-0.0024013883,-0.012099937,0.10714103,71.646255,-23.198353,20.619352,23.1273397,72.5418365,103.53348
1729838433355,-0.87738,-1.6250386,9.862334,-0.0024013883,-0.012099937,0.10714103,71.646255,-23.198353,20.619352,23.1273397,72.5418365,103.53348
1729838433355,-0.811256,-1.6381367,9.831284,-0.0024013883,-0.012099937,0.10714103,71.646255,-23.198353,20.619352,23.1273397,72.5418365,103.53348
1729838433356,-0.72844654,-1.634019,9.786703,-0.0024013883,-0.012099937,0.10714103,71.646255,-23.198353,20.619352,23.1273397,72.5418365,103.53348
1729838433439,-0.72844654,-1.634019,9.786703,-0.0024013883,-0.012099937,0.10714103,71.31576,-23.212433,20.631731,23.1273397,72.5418365,103.53348
1729838433514,-0.82048416,-1.639339,9.736562,-0.0024013883,-0.012099937,0.10714103,71.31576,-23.212433,20.631731,23.1273397,72.5418365,103.53348
1729838433515,-0.81790286,-1.663934,9.671324,-0.0024013883,-0.012099937,0.10714103,71.31576,-23.212433,20.631731,23.1273397,72.5418365,103.53348
1729838433515,-0.6979913,-1.6751155,9.639113,-0.0024013883,-0.012099937,0.10714103,71.31576,-23.212433,20.631731,23.1273397,72.5418365,103.53348
1729838433515,-0.8438568,-1.6954266,9.655818,-0.0024013883,-0.012099937,0.10714103,71.31576,-23.212433,20.631731,23.1273397,72.5418365,103.53348
1729838433516,-0.8423438,-1.7458928,9.665952,-0.0024013883,-0.012099937,0.10714103,71.31576,-23.212433,20.631731,23.1273397,72.5418365,103.53348
1729838433516,-0.7801163,-1.773823,9.66018,-0.0024013883,-0.012099937,0.10714103,71.31576,-23.212433,20.631731,23.1273397,72.5418365,103.53348
1729838433516,-0.88180006,-1.8041832,9.66956,-0.0024013883,-0.012099937,0.10714103,71.31576,-23.212433,20.631731,23.1273397,72.5418365,103.53348
1729838433516,-0.9469955,-1.7751114,9.711522,-0.0024013883,-0.012099937,0.10714103,71.31576,-23.212433,20.631731,23.1273397,72.5418365,103.53348
1729838433539,-0.9469955,-1.7751114,9.711522,-0.0036009885,-0.008336048,0.13235235,71.31576,-23.212433,20.631731,23.1273397,72.5418365,103.53348
1729838433639,-0.9469955,-1.7751114,9.711522,-0.0036009885,-0.008336048,0.13235235,70.89386,-23.219946,20.656635,23.1273397,72.5418365,103.53348
1729838433647,-0.9469955,-1.7751114,9.711522,-0.0036009885,-0.008336048,0.13235235,70.89386,-23.219946,20.656635,23.12739864,72.54176321,68.86933
1729838433651,-0.970438,-1.8213655,9.719847,-0.0036009885,-0.008336048,0.13235235,70.89386,-23.219946,20.656635,23.12739864,72.54176321,68.86933
1729838433651,-1.0399199,-1.8453279,9.762877,-0.0036009885,-0.008336048,0.13235235,70.89386,-23.219946,20.656635,23.12739864,72.54176321,68.86933
1729838433651,-1.0379579,-1.8424838,9.796105,-0.0036009885,-0.008336048,0.13235235,70.89386,-23.219946,20.656635,23.12739864,72.54176321,68.86933
1729838433652,-1.2170465,-1.8532493,9.773396,-0.0036009885,-0.008336048,0.13235235,70.89386,-23.219946,20.656635,23.12739864,72.54176321,68.86933
1729838433652,-1.2192605,-1.8373353,9.751399,-0.0036009885,-0.008336048,0.13235235,70.89386,-23.219946,20.656635,23.12739864,72.54176321,68.86933
1729838433652,-1.3470137,-1.8371665,9.705806,-0.0036009885,-0.008336048,0.13235235,70.89386,-23.219946,20.656635,23.12739864,72.54176321,68.86933
1729838433746,-1.3470137,-1.8371665,9.705806,0.0028307943,-0.0073713325,0.16073754,70.89386,-23.219946,20.656635,23.12739864,72.54176321,68.86933
1729838433835,-1.380303,-1.8193246,9.715872,0.0028307943,-0.0073713325,0.16073754,70.89386,-23.219946,20.656635,23.12739864,72.54176321,68.86933
1729838433835,-1.3718796,-1.8191688,9.680494,0.0028307943,-0.0073713325,0.16073754,70.89386,-23.219946,20.656635,23.12739864,72.54176321,68.86933
1729838433836,-1.4673144,-1.816412,9.681026,0.0028307943,-0.0073713325,0.16073754,70.89386,-23.219946,20.656635,23.12739864,72.54176321,68.86933
1729838433836,-1.4906611,-1.8390919,9.677863,0.0028307943,-0.0073713325,0.16073754,70.89386,-23.219946,20.656635,23.12739864,72.54176321,68.86933
1729838433836,-1.5510933,-1.8639357,9.674495,0.0028307943,-0.0073713325,0.16073754,70.89386,-23.219946,20.656635,23.12739864,72.54176321,68.86933
1729838433836,-1.524783,-1.8787858,9.737124,0.0028307943,-0.0073713325,0.16073754,70.89386,-23.219946,20.656635,23.12739864,72.54176321,68.86933
1729838433837,-1.5905943,-1.9346939,9.811515,0.0028307943,-0.0073713325,0.16073754,70.89386,-23.219946,20.656635,23.12739864,72.54176321,68.86933
1729838433837,-1.641329,-1.9346745,9.879881,0.0028307943,-0.0073713325,0.16073754,70.89386,-23.219946,20.656635,23.12739864,72.54176321,68.86933
1729838433837,-1.641329,-1.9346745,9.879881,0.0028307943,-0.0073713325,0.16073754,70.376335,-23.233456,20.714058,23.12739864,72.54176321,68.86933
1729838433952,-1.641329,-1.9346745,9.879881,0.0041888594,-0.011761367,0.19224215,70.376335,-23.233456,20.714058,23.12739864,72.54176321,68.86933
1729838433995,-1.5743594,-1.986344,9.923447,0.0041888594,-0.011761367,0.19224215,70.376335,-23.233456,20.714058,23.12739864,72.54176321,68.86933
1729838433995,-1.6471248,-1.9856856,9.949446,0.0041888594,-0.011761367,0.19224215,70.376335,-23.233456,20.714058,23.12739864,72.54176321,68.86933
1729838433996,-1.6456361,-1.962427,9.955171,0.0041888594,-0.011761367,0.19224215,70.376335,-23.233456,20.714058,23.12739864,72.54176321,68.86933
1729838433996,-1.5557911,-1.9608092,9.897179,0.0041888594,-0.011761367,0.19224215,70.376335,-23.233456,20.714058,23.12739864,72.54176321,68.86933
1729838433996,-1.5793889,-1.9450383,9.8057995,0.0041888594,-0.011761367,0.19224215,70.376335,-23.233456,20.714058,23.12739864,72.54176321,68.86933
1729838433996,-1.5082968,-1.9421126,9.730902,0.0041888594,-0.011761367,0.19224215,70.376335,-23.233456,20.714058,23.12739864,72.54176321,68.86933
1729838433997,-1.6189208,-1.9503005,9.683067,0.0041888594,-0.011761367,0.19224215,70.376335,-23.233456,20.714058,23.12739864,72.54176321,68.86933
1729838433997,-1.5864629,-1.942733,9.656644,0.0041888594,-0.011761367,0.19224215,70.376335,-23.233456,20.714058,23.12739864,72.54176321,68.86933
1729838434039,-1.5864629,-1.942733,9.656644,0.0041888594,-0.011761367,0.19224215,69.73732,-23.240515,20.816246,23.12739864,72.54176321,68.86933
1729838434072,-1.6864786,-1.9507968,9.644957,0.0041888594,-0.011761367,0.19224215,69.73732,-23.240515,20.816246,23.12739864,72.54176321,68.86933
1729838434073,-1.7075081,-1.9683745,9.668509,0.0041888594,-0.011761367,0.19224215,69.73732,-23.240515,20.816246,23.12739864,72.54176321,68.86933
1729838434073,-1.8219588,-1.9884186,9.700151,0.0041888594,-0.011761367,0.19224215,69.73732,-23.240515,20.816246,23.12739864,72.54176321,68.86933
1729838434073,-1.8522632,-1.997754,9.734918,0.0041888594,-0.011761367,0.19224215,69.73732,-23.240515,20.816246,23.12739864,72.54176321,68.86933
1729838434160,-1.8522632,-1.997754,9.734918,0.005092052,-0.016220236,0.23122084,69.73732,-23.240515,20.816246,23.12739864,72.54176321,68.86933
1729838434239,-1.8522632,-1.997754,9.734918,0.005092052,-0.016220236,0.23122084,68.97111,-23.223663,20.984247,23.12739864,72.54176321,68.86933
1729838434264,-1.8652604,-2.0200577,9.722053,0.005092052,-0.016220236,0.23122084,68.97111,-23.223663,20.984247,23.12739864,72.54176321,68.86933
1729838434265,-1.8944418,-2.0307224,9.739996,0.005092052,-0.016220236,0.23122084,68.97111,-23.223663,20.984247,23.12739864,72.54176321,68.86933
1729838434265,-1.8320043,-2.0043187,9.751,0.005092052,-0.016220236,0.23122084,68.97111,-23.223663,20.984247,23.12739864,72.54176321,68.86933
1729838434265,-1.9161719,-2.0172937,9.747242,0.005092052,-0.016220236,0.23122084,68.97111,-23.223663,20.984247,23.12739864,72.54176321,68.86933
1729838434266,-1.7756894,-2.0438251,9.767924,0.005092052,-0.016220236,0.23122084,68.97111,-23.223663,20.984247,23.12739864,72.54176321,68.86933
1729838434266,-1.8196743,-2.039208,9.842257,0.005092052,-0.016220236,0.23122084,68.97111,-23.223663,20.984247,23.12739864,72.54176321,68.86933
1729838434266,-1.8321304,-2.0442479,9.857934,0.005092052,-0.016220236,0.23122084,68.97111,-23.223663,20.984247,23.12739864,72.54176321,68.86933
1729838434266,-1.8626735,-2.0984094,9.858273,0.005092052,-0.016220236,0.23122084,68.97111,-23.223663,20.984247,23.12739864,72.54176321,68.86933
1729838434367,-1.8626735,-2.0984094,9.858273,0.0025159367,-0.020276023,0.27602607,68.97111,-23.223663,20.984247,23.12739864,72.54176321,68.86933
1729838434439,-1.8626735,-2.0984094,9.858273,0.0025159367,-0.020276023,0.27602607,68.04689,-23.168932,21.193647,23.12739864,72.54176321,68.86933
1729838434464,-1.9813854,-2.0861056,9.893358,0.0025159367,-0.020276023,0.27602607,68.04689,-23.168932,21.193647,23.12739864,72.54176321,68.86933
1729838434464,-2.0690565,-2.0986354,9.827988,0.0025159367,-0.020276023,0.27602607,68.04689,-23.168932,21.193647,23.12739864,72.54176321,68.86933
1729838434465,-2.0751855,-2.1155984,9.793159,0.0025159367,-0.020276023,0.27602607,68.04689,-23.168932,21.193647,23.12739864,72.54176321,68.86933
1729838434465,-2.0240967,-2.1130173,9.754887,0.0025159367,-0.020276023,0.27602607,68.04689,-23.168932,21.193647,23.12739864,72.54176321,68.86933
1729838434465,-2.1631658,-2.1182506,9.703093,0.0025159367,-0.020276023,0.27602607,68.04689,-23.168932,21.193647,23.12739864,72.54176321,68.86933
1729838434466,-2.0435138,-2.082836,9.646104,0.0025159367,-0.020276023,0.27602607,68.04689,-23.168932,21.193647,23.12739864,72.54176321,68.86933
1729838434466,-2.047932,-2.01251,9.605299,0.0025159367,-0.020276023,0.27602607,68.04689,-23.168932,21.193647,23.12739864,72.54176321,68.86933
1729838434466,-2.0418952,-2.0535178,9.659155,0.0025159367,-0.020276023,0.27602607,68.04689,-23.168932,21.193647,23.12739864,72.54176321,68.86933
1729838434466,-2.284364,-2.079265,9.64888,0.0025159367,-0.020276023,0.27602607,68.04689,-23.168932,21.193647,23.12739864,72.54176321,68.86933
1729838434467,-2.045956,-1.988477,9.665545,0.0025159367,-0.020276023,0.27602607,68.04689,-23.168932,21.193647,23.12739864,72.54176321,68.86933
1729838434572,-2.045956,-1.988477,9.665545,8.215632E-4,-0.031736784,0.31620738,68.04689,-23.168932,21.193647,23.12739864,72.54176321,68.86933
1729838434639,-2.045956,-1.988477,9.665545,8.215632E-4,-0.031736784,0.31620738,66.94376,-23.053896,21.432419,23.12739864,72.54176321,68.86933
1729838434652,-2.045956,-1.988477,9.665545,8.215632E-4,-0.031736784,0.31620738,66.94376,-23.053896,21.432419,23.12736992,72.54178118,13.163453
1729838434661,-2.0911617,-1.9927757,9.678878,8.215632E-4,-0.031736784,0.31620738,66.94376,-23.053896,21.432419,23.12736992,72.54178118,13.163453
1729838434661,-2.072411,-1.9892755,9.636543,8.215632E-4,-0.031736784,0.31620738,66.94376,-23.053896,21.432419,23.12736992,72.54178118,13.163453
1729838434661,-2.01422,-1.9576418,9.63761,8.215632E-4,-0.031736784,0.31620738,66.94376,-23.053896,21.432419,23.12736992,72.54178118,13.163453
1729838434662,-2.0149255,-1.9633219,9.6198,8.215632E-4,-0.031736784,0.31620738,66.94376,-23.053896,21.432419,23.12736992,72.54178118,13.163453
1729838434662,-1.9492087,-1.9503986,9.636898,8.215632E-4,-0.031736784,0.31620738,66.94376,-23.053896,21.432419,23.12736992,72.54178118,13.163453
1729838434662,-2.003475,-1.9290528,9.648064,8.215632E-4,-0.031736784,0.31620738,66.94376,-23.053896,21.432419,23.12736992,72.54178118,13.163453
1729838434662,-1.9033185,-1.9295635,9.641921,8.215632E-4,-0.031736784,0.31620738,66.94376,-23.053896,21.432419,23.12736992,72.54178118,13.163453
1729838434663,-1.9035922,-1.8945583,9.654834,8.215632E-4,-0.031736784,0.31620738,66.94376,-23.053896,21.432419,23.12736992,72.54178118,13.163453
1729838434663,-1.813841,-1.890243,9.674496,8.215632E-4,-0.031736784,0.31620738,66.94376,-23.053896,21.432419,23.12736992,72.54178118,13.163453
1729838434779,-1.813841,-1.890243,9.674496,8.0996676E-4,-0.037148573,0.35556063,66.94376,-23.053896,21.432419,23.12736992,72.54178118,13.163453
1729838434793,-1.8858486,-1.911078,9.698481,8.0996676E-4,-0.037148573,0.35556063,66.94376,-23.053896,21.432419,23.12736992,72.54178118,13.163453
1729838434794,-1.8798057,-1.8776163,9.698885,8.0996676E-4,-0.037148573,0.35556063,66.94376,-23.053896,21.432419,23.12736992,72.54178118,13.163453
1729838434794,-1.8376434,-1.8588629,9.707105,8.0996676E-4,-0.037148573,0.35556063,66.94376,-23.053896,21.432419,23.12736992,72.54178118,13.163453
1729838434794,-1.8462664,-1.83393,9.720859,8.0996676E-4,-0.037148573,0.35556063,66.94376,-23.053896,21.432419,23.12736992,72.54178118,13.163453
1729838434795,-1.8251688,-1.8251102,9.732461,8.0996676E-4,-0.037148573,0.35556063,66.94376,-23.053896,21.432419,23.12736992,72.54178118,13.163453
1729838434795,-1.762229,-1.8173366,9.735641,8.0996676E-4,-0.037148573,0.35556063,66.94376,-23.053896,21.432419,23.12736992,72.54178118,13.163453
1729838434840,-1.762229,-1.8173366,9.735641,8.0996676E-4,-0.037148573,0.35556063,65.65251,-22.864367,21.675936,23.12736992,72.54178118,13.163453
1729838434955,-1.8236219,-1.8248763,9.813438,8.0996676E-4,-0.037148573,0.35556063,65.65251,-22.864367,21.675936,23.12736992,72.54178118,13.163453
1729838434955,-1.7923373,-1.8492134,9.832008,8.0996676E-4,-0.037148573,0.35556063,65.65251,-22.864367,21.675936,23.12736992,72.54178118,13.163453
1729838434956,-1.8460336,-1.852651,9.885149,8.0996676E-4,-0.037148573,0.35556063,65.65251,-22.864367,21.675936,23.12736992,72.54178118,13.163453
1729838434956,-2.0409348,-1.8786116,9.893564,8.0996676E-4,-0.037148573,0.35556063,65.65251,-22.864367,21.675936,23.12736992,72.54178118,13.163453
1729838434956,-1.929099,-1.8788017,9.906039,8.0996676E-4,-0.037148573,0.35556063,65.65251,-22.864367,21.675936,23.12736992,72.54178118,13.163453
1729838434956,-1.9133291,-1.8523935,9.836936,8.0996676E-4,-0.037148573,0.35556063,65.65251,-22.864367,21.675936,23.12736992,72.54178118,13.163453
1729838434957,-1.8668549,-1.8827126,9.781534,8.0996676E-4,-0.037148573,0.35556063,65.65251,-22.864367,21.675936,23.12736992,72.54178118,13.163453
1729838434957,-1.9105529,-1.8704774,9.728358,8.0996676E-4,-0.037148573,0.35556063,65.65251,-22.864367,21.675936,23.12736992,72.54178118,13.163453
1729838434984,-1.9105529,-1.8704774,9.728358,-0.005307958,-0.044990476,0.39046407,65.65251,-22.864367,21.675936,23.12736992,72.54178118,13.163453
1729838435039,-1.9105529,-1.8704774,9.728358,-0.005307958,-0.044990476,0.39046407,64.158264,-22.581493,21.9345,23.12736992,72.54178118,13.163453
1729838435079,-1.8178542,-1.8627231,9.695629,-0.005307958,-0.044990476,0.39046407,64.158264,-22.581493,21.9345,23.12736992,72.54178118,13.163453
1729838435079,-1.7201259,-1.8142862,9.652816,-0.005307958,-0.044990476,0.39046407,64.158264,-22.581493,21.9345,23.12736992,72.54178118,13.163453
1729838435079,-1.6741269,-1.8208808,9.61354,-0.005307958,-0.044990476,0.39046407,64.158264,-22.581493,21.9345,23.12736992,72.54178118,13.163453
1729838435079,-1.6056226,-1.785598,9.618131,-0.005307958,-0.044990476,0.39046407,64.158264,-22.581493,21.9345,23.12736992,72.54178118,13.163453
1729838435080,-1.5938901,-1.7761556,9.586151,-0.005307958,-0.044990476,0.39046407,64.158264,-22.581493,21.9345,23.12736992,72.54178118,13.163453
1729838435191,-1.5938901,-1.7761556,9.586151,-0.0047350586,-0.044788834,0.41826466,64.158264,-22.581493,21.9345,23.12736992,72.54178118,13.163453
1729838435224,-1.5763683,-1.7331879,9.555063,-0.0047350586,-0.044788834,0.41826466,64.158264,-22.581493,21.9345,23.12736992,72.54178118,13.163453
1729838435225,-1.5459602,-1.7189133,9.580322,-0.0047350586,-0.044788834,0.41826466,64.158264,-22.581493,21.9345,23.12736992,72.54178118,13.163453
1729838435225,-1.6184233,-1.7015116,9.618117,-0.0047350586,-0.044788834,0.41826466,64.158264,-22.581493,21.9345,23.12736992,72.54178118,13.163453
1729838435225,-1.7097738,-1.6975205,9.654335,-0.0047350586,-0.044788834,0.41826466,64.158264,-22.581493,21.9345,23.12736992,72.54178118,13.163453
1729838435225,-1.6528043,-1.6573584,9.688813,-0.0047350586,-0.044788834,0.41826466,64.158264,-22.581493,21.9345,23.12736992,72.54178118,13.163453
1729838435226,-1.7842975,-1.6787084,9.721181,-0.0047350586,-0.044788834,0.41826466,64.158264,-22.581493,21.9345,23.12736992,72.54178118,13.163453
1729838435226,-1.8464212,-1.6951902,9.764663,-0.0047350586,-0.044788834,0.41826466,64.158264,-22.581493,21.9345,23.12736992,72.54178118,13.163453
1729838435239,-1.8464212,-1.6951902,9.764663,-0.0047350586,-0.044788834,0.41826466,62.47911,-22.160194,22.1901,23.12736992,72.54178118,13.163453
1729838435399,-1.8464212,-1.6951902,9.764663,-0.008308446,-0.050308563,0.43668723,62.47911,-22.160194,22.1901,23.12736992,72.54178118,13.163453
1729838435424,-1.8117732,-1.7215362,9.792748,-0.008308446,-0.050308563,0.43668723,62.47911,-22.160194,22.1901,23.12736992,72.54178118,13.163453
1729838435424,-1.8975942,-1.7115062,9.846085,-0.008308446,-0.050308563,0.43668723,62.47911,-22.160194,22.1901,23.12736992,72.54178118,13.163453
1729838435424,-1.7717146,-1.7277694,9.869371,-0.008308446,-0.050308563,0.43668723,62.47911,-22.160194,22.1901,23.12736992,72.54178118,13.163453
1729838435424,-1.7415991,-1.7583672,9.883813,-0.008308446,-0.050308563,0.43668723,62.47911,-22.160194,22.1901,23.12736992,72.54178118,13.163453
1729838435425,-1.6300491,-1.7512603,9.885077,-0.008308446,-0.050308563,0.43668723,62.47911,-22.160194,22.1901,23.12736992,72.54178118,13.163453
1729838435425,-1.5877085,-1.7486854,9.869219,-0.008308446,-0.050308563,0.43668723,62.47911,-22.160194,22.1901,23.12736992,72.54178118,13.163453
1729838435425,-1.5321808,-1.7412416,9.832963,-0.008308446,-0.050308563,0.43668723,62.47911,-22.160194,22.1901,23.12736992,72.54178118,13.163453
1729838435426,-1.4742392,-1.7343295,9.7835,-0.008308446,-0.050308563,0.43668723,62.47911,-22.160194,22.1901,23.12736992,72.54178118,13.163453
1729838435426,-1.5002689,-1.7287997,9.752543,-0.008308446,-0.050308563,0.43668723,62.47911,-22.160194,22.1901,23.12736992,72.54178118,13.163453
1729838435438,-1.5002689,-1.7287997,9.752543,-0.008308446,-0.050308563,0.43668723,60.618286,-21.598156,22.390831,23.12736992,72.54178118,13.163453
1729838435605,-1.5002689,-1.7287997,9.752543,-0.005974806,-0.055946074,0.45136422,60.618286,-21.598156,22.390831,23.12736992,72.54178118,13.163453
1729838435624,-1.4617507,-1.7106173,9.7170105,-0.005974806,-0.055946074,0.45136422,60.618286,-21.598156,22.390831,23.12736992,72.54178118,13.163453
1729838435624,-1.5120528,-1.7140175,9.720649,-0.005974806,-0.055946074,0.45136422,60.618286,-21.598156,22.390831,23.12736992,72.54178118,13.163453
1729838435624,-1.5692835,-1.7215233,9.727508,-0.005974806,-0.055946074,0.45136422,60.618286,-21.598156,22.390831,23.12736992,72.54178118,13.163453
1729838435625,-1.5734329,-1.7181958,9.726534,-0.005974806,-0.055946074,0.45136422,60.618286,-21.598156,22.390831,23.12736992,72.54178118,13.163453
1729838435625,-1.6234126,-1.7379067,9.743581,-0.005974806,-0.055946074,0.45136422,60.618286,-21.598156,22.390831,23.12736992,72.54178118,13.163453
1729838435625,-1.677514,-1.7371651,9.75662,-0.005974806,-0.055946074,0.45136422,60.618286,-21.598156,22.390831,23.12736992,72.54178118,13.163453
1729838435626,-1.6329784,-1.7096525,9.717999,-0.005974806,-0.055946074,0.45136422,60.618286,-21.598156,22.390831,23.12736992,72.54178118,13.163453
1729838435626,-1.6440101,-1.6979315,9.662815,-0.005974806,-0.055946074,0.45136422,60.618286,-21.598156,22.390831,23.12736992,72.54178118,13.163453
1729838435626,-1.5586778,-1.6652248,9.627043,-0.005974806,-0.055946074,0.45136422,60.618286,-21.598156,22.390831,23.12736992,72.54178118,13.163453
1729838435626,-1.4565536,-1.6170454,9.608594,-0.005974806,-0.055946074,0.45136422,60.618286,-21.598156,22.390831,23.12736992,72.54178118,13.163453
1729838435639,-1.4565536,-1.6170454,9.608594,-0.005974806,-0.055946074,0.45136422,58.60463,-20.889774,22.525164,23.12736992,72.54178118,13.163453
1729838435652,-1.4565536,-1.6170454,9.608594,-0.005974806,-0.055946074,0.45136422,58.60463,-20.889774,22.525164,23.12735704,72.54180905,11.488153
1729838435657,-1.4134983,-1.5932177,9.576248,-0.005974806,-0.055946074,0.45136422,58.60463,-20.889774,22.525164,23.12735704,72.54180905,11.488153
1729838435755,-1.3210281,-1.5540558,9.607081,-0.005974806,-0.055946074,0.45136422,58.60463,-20.889774,22.525164,23.12735704,72.54180905,11.488153
1729838435755,-1.2287469,-1.5106425,9.636892,-0.005974806,-0.055946074,0.45136422,58.60463,-20.889774,22.525164,23.12735704,72.54180905,11.488153
1729838435756,-1.1849518,-1.4937385,9.646982,-0.005974806,-0.055946074,0.45136422,58.60463,-20.889774,22.525164,23.12735704,72.54180905,11.488153
1729838435756,-1.0673633,-1.4537747,9.684726,-0.005974806,-0.055946074,0.45136422,58.60463,-20.889774,22.525164,23.12735704,72.54180905,11.488153
1729838435756,-1.0213882,-1.4304177,9.705828,-0.005974806,-0.055946074,0.45136422,58.60463,-20.889774,22.525164,23.12735704,72.54180905,11.488153
1729838435811,-1.0213882,-1.4304177,9.705828,-0.0012979158,-0.06311335,0.44887263,58.60463,-20.889774,22.525164,23.12735704,72.54180905,11.488153
1729838435838,-1.0213882,-1.4304177,9.705828,-0.0012979158,-0.06311335,0.44887263,56.457455,-20.026821,22.587631,23.12735704,72.54180905,11.488153
1729838435915,-0.97192615,-1.4203463,9.705361,-0.0012979158,-0.06311335,0.44887263,56.457455,-20.026821,22.587631,23.12735704,72.54180905,11.488153
1729838435915,-0.8711003,-1.3902752,9.720422,-0.0012979158,-0.06311335,0.44887263,56.457455,-20.026821,22.587631,23.12735704,72.54180905,11.488153
1729838435915,-0.77153635,-1.370645,9.749938,-0.0012979158,-0.06311335,0.44887263,56.457455,-20.026821,22.587631,23.12735704,72.54180905,11.488153
1729838435915,-0.76247346,-1.3776727,9.770081,-0.0012979158,-0.06311335,0.44887263,56.457455,-20.026821,22.587631,23.12735704,72.54180905,11.488153
1729838435916,-0.680567,-1.3756378,9.80462,-0.0012979158,-0.06311335,0.44887263,56.457455,-20.026821,22.587631,23.12735704,72.54180905,11.488153
1729838435916,-0.6322702,-1.3663528,9.850437,-0.0012979158,-0.06311335,0.44887263,56.457455,-20.026821,22.587631,23.12735704,72.54180905,11.488153
1729838435916,-0.6260555,-1.3827335,9.8666315,-0.0012979158,-0.06311335,0.44887263,56.457455,-20.026821,22.587631,23.12735704,72.54180905,11.488153
1729838436019,-0.6260555,-1.3827335,9.8666315,0.0014356696,-0.06469329,0.42849234,56.457455,-20.026821,22.587631,23.12735704,72.54180905,11.488153
1729838436039,-0.6260555,-1.3827335,9.8666315,0.0014356696,-0.06469329,0.42849234,54.229717,-19.047707,22.611355,23.12735704,72.54180905,11.488153
1729838436075,-0.58471286,-1.3973932,9.888202,0.0014356696,-0.06469329,0.42849234,54.229717,-19.047707,22.611355,23.12735704,72.54180905,11.488153
1729838436075,-0.5740116,-1.4037372,9.916346,0.0014356696,-0.06469329,0.42849234,54.229717,-19.047707,22.611355,23.12735704,72.54180905,11.488153
1729838436076,-0.5747826,-1.4223318,9.902249,0.0014356696,-0.06469329,0.42849234,54.229717,-19.047707,22.611355,23.12735704,72.54180905,11.488153
1729838436076,-0.55805147,-1.430388,9.913226,0.0014356696,-0.06469329,0.42849234,54.229717,-19.047707,22.611355,23.12735704,72.54180905,11.488153
1729838436076,-0.49178517,-1.4452078,9.940791,0.0014356696,-0.06469329,0.42849234,54.229717,-19.047707,22.611355,23.12735704,72.54180905,11.488153
1729838436076,-0.4470274,-1.4637637,9.943102,0.0014356696,-0.06469329,0.42849234,54.229717,-19.047707,22.611355,23.12735704,72.54180905,11.488153
1729838436077,-0.40858904,-1.447023,9.927842,0.0014356696,-0.06469329,0.42849234,54.229717,-19.047707,22.611355,23.12735704,72.54180905,11.488153
1729838436077,-0.33572468,-1.434468,9.921975,0.0014356696,-0.06469329,0.42849234,54.229717,-19.047707,22.611355,23.12735704,72.54180905,11.488153
1729838436226,-0.33572468,-1.434468,9.921975,2.3223861E-4,-0.06247531,0.3949312,54.229717,-19.047707,22.611355,23.12735704,72.54180905,11.488153
1729838436235,-0.2812617,-1.4247829,9.891439,2.3223861E-4,-0.06247531,0.3949312,54.229717,-19.047707,22.611355,23.12735704,72.54180905,11.488153
1729838436236,-0.20467037,-1.4133259,9.836622,2.3223861E-4,-0.06247531,0.3949312,54.229717,-19.047707,22.611355,23.12735704,72.54180905,11.488153
1729838436236,-0.08788382,-1.3973408,9.787025,2.3223861E-4,-0.06247531,0.3949312,54.229717,-19.047707,22.611355,23.12735704,72.54180905,11.488153
1729838436236,-0.0427896,-1.3770152,9.754407,2.3223861E-4,-0.06247531,0.3949312,54.229717,-19.047707,22.611355,23.12735704,72.54180905,11.488153
1729838436236,0.012667641,-1.410406,9.735729,2.3223861E-4,-0.06247531,0.3949312,54.229717,-19.047707,22.611355,23.12735704,72.54180905,11.488153
1729838436237,0.044590756,-1.3908175,9.724616,2.3223861E-4,-0.06247531,0.3949312,54.229717,-19.047707,22.611355,23.12735704,72.54180905,11.488153
1729838436237,0.06761679,-1.3886662,9.71441,2.3223861E-4,-0.06247531,0.3949312,54.229717,-19.047707,22.611355,23.12735704,72.54180905,11.488153
1729838436238,0.06761679,-1.3886662,9.71441,2.3223861E-4,-0.06247531,0.3949312,51.986275,-17.941916,22.577835,23.12735704,72.54180905,11.488153
1729838436396,0.13987611,-1.3965163,9.714739,2.3223861E-4,-0.06247531,0.3949312,51.986275,-17.941916,22.577835,23.12735704,72.54180905,11.488153
1729838436397,0.109268785,-1.4305532,9.746946,2.3223861E-4,-0.06247531,0.3949312,51.986275,-17.941916,22.577835,23.12735704,72.54180905,11.488153
1729838436397,0.12857157,-1.4504845,9.760629,2.3223861E-4,-0.06247531,0.3949312,51.986275,-17.941916,22.577835,23.12735704,72.54180905,11.488153
1729838436397,0.105130434,-1.4592512,9.781505,2.3223861E-4,-0.06247531,0.3949312,51.986275,-17.941916,22.577835,23.12735704,72.54180905,11.488153
1729838436398,0.028231945,-1.5145996,9.796172,2.3223861E-4,-0.06247531,0.3949312,51.986275,-17.941916,22.577835,23.12735704,72.54180905,11.488153
1729838436398,-0.01952812,-1.5182003,9.820109,2.3223861E-4,-0.06247531,0.3949312,51.986275,-17.941916,22.577835,23.12735704,72.54180905,11.488153
1729838436398,-0.08357865,-1.5204827,9.844045,2.3223861E-4,-0.06247531,0.3949312,51.986275,-17.941916,22.577835,23.12735704,72.54180905,11.488153
1729838436430,-0.08357865,-1.5204827,9.844045,0.0044007576,-0.05092709,0.35555956,51.986275,-17.941916,22.577835,23.12735704,72.54180905,11.488153
1729838436439,-0.08357865,-1.5204827,9.844045,0.0044007576,-0.05092709,0.35555956,49.77527,-16.749783,22.487268,23.12735704,72.54180905,11.488153
1729838436555,-0.2079198,-1.5293674,9.843093,0.0044007576,-0.05092709,0.35555956,49.77527,-16.749783,22.487268,23.12735704,72.54180905,11.488153
1729838436555,-0.21514943,-1.537193,9.817447,0.0044007576,-0.05092709,0.35555956,49.77527,-16.749783,22.487268,23.12735704,72.54180905,11.488153
1729838436555,-0.24522027,-1.5073217,9.784726,0.0044007576,-0.05092709,0.35555956,49.77527,-16.749783,22.487268,23.12735704,72.54180905,11.488153
1729838436556,-0.27238762,-1.4709821,9.739408,0.0044007576,-0.05092709,0.35555956,49.77527,-16.749783,22.487268,23.12735704,72.54180905,11.488153
1729838436556,-0.28550732,-1.4514817,9.714996,0.0044007576,-0.05092709,0.35555956,49.77527,-16.749783,22.487268,23.12735704,72.54180905,11.488153
1729838436556,-0.160689,-1.3710359,9.736384,0.0044007576,-0.05092709,0.35555956,49.77527,-16.749783,22.487268,23.12735704,72.54180905,11.488153
1729838436556,-0.096607015,-1.2620533,9.729926,0.0044007576,-0.05092709,0.35555956,49.77527,-16.749783,22.487268,23.12735704,72.54180905,11.488153
1729838436557,-0.18472335,-1.1821651,9.657282,0.0044007576,-0.05092709,0.35555956,49.77527,-16.749783,22.487268,23.12735704,72.54180905,11.488153
1729838436637,-0.18472335,-1.1821651,9.657282,0.005964065,-0.04730847,0.31453273,49.77527,-16.749783,22.487268,23.12735704,72.54180905,11.488153
1729838436638,-0.18472335,-1.1821651,9.657282,0.005964065,-0.04730847,0.31453273,47.66897,-15.503576,22.317314,23.12735704,72.54180905,11.488153
1729838436648,-0.18472335,-1.1821651,9.657282,0.005964065,-0.04730847,0.31453273,47.66897,-15.503576,22.317314,23.12735328,72.54183628,10.192683
1729838436660,-0.036392786,-1.2459117,9.685786,0.005964065,-0.04730847,0.31453273,47.66897,-15.503576,22.317314,23.12735328,72.54183628,10.192683
1729838436660,0.03154382,-1.0969887,9.783485,0.005964065,-0.04730847,0.31453273,47.66897,-15.503576,22.317314,23.12735328,72.54183628,10.192683
1729838436660,0.012433456,-1.1065841,9.767607,0.005964065,-0.04730847,0.31453273,47.66897,-15.503576,22.317314,23.12735328,72.54183628,10.192683
1729838436661,0.048471212,-1.1104319,9.765911,0.005964065,-0.04730847,0.31453273,47.66897,-15.503576,22.317314,23.12735328,72.54183628,10.192683
1729838436661,0.077421054,-1.0804892,9.823657,0.005964065,-0.04730847,0.31453273,47.66897,-15.503576,22.317314,23.12735328,72.54183628,10.192683
1729838436825,0.23362187,-1.0698152,9.816015,0.005964065,-0.04730847,0.31453273,47.66897,-15.503576,22.317314,23.12735328,72.54183628,10.192683
1729838436826,0.19551167,-1.0671383,9.8107395,0.005964065,-0.04730847,0.31453273,47.66897,-15.503576,22.317314,23.12735328,72.54183628,10.192683
1729838436826,0.22939041,-1.0817466,9.827696,0.005964065,-0.04730847,0.31453273,47.66897,-15.503576,22.317314,23.12735328,72.54183628,10.192683
1729838436826,0.34359217,-1.0562248,9.839825,0.005964065,-0.04730847,0.31453273,47.66897,-15.503576,22.317314,23.12735328,72.54183628,10.192683
1729838436826,0.3242855,-1.077323,9.850843,0.005964065,-0.04730847,0.31453273,47.66897,-15.503576,22.317314,23.12735328,72.54183628,10.192683
1729838436827,0.34018618,-1.0741017,9.877007,0.005964065,-0.04730847,0.31453273,47.66897,-15.503576,22.317314,23.12735328,72.54183628,10.192683
1729838436827,0.3724082,-1.0953333,9.911816,0.005964065,-0.04730847,0.31453273,47.66897,-15.503576,22.317314,23.12735328,72.54183628,10.192683
1729838436839,0.3724082,-1.0953333,9.911816,0.005964065,-0.04730847,0.31453273,45.672672,-14.277862,22.102602,23.12735328,72.54183628,10.192683
1729838436844,0.3724082,-1.0953333,9.911816,0.003457893,-0.040840015,0.26521793,45.672672,-14.277862,22.102602,23.12735328,72.54183628,10.192683
1729838437025,0.39292163,-1.1069348,9.936911,0.003457893,-0.040840015,0.26521793,45.672672,-14.277862,22.102602,23.12735328,72.54183628,10.192683
1729838437026,0.2977072,-1.1219587,9.956867,0.003457893,-0.040840015,0.26521793,45.672672,-14.277862,22.102602,23.12735328,72.54183628,10.192683
1729838437026,0.34608206,-1.1246458,9.967209,0.003457893,-0.040840015,0.26521793,45.672672,-14.277862,22.102602,23.12735328,72.54183628,10.192683
1729838437026,0.28488162,-1.1296669,9.955263,0.003457893,-0.040840015,0.26521793,45.672672,-14.277862,22.102602,23.12735328,72.54183628,10.192683
1729838437027,0.179331,-1.1305732,9.949535,0.003457893,-0.040840015,0.26521793,45.672672,-14.277862,22.102602,23.12735328,72.54183628,10.192683
1729838437027,0.17181975,-1.1127537,9.9294,0.003457893,-0.040840015,0.26521793,45.672672,-14.277862,22.102602,23.12735328,72.54183628,10.192683
1729838437027,0.14571105,-1.1020875,9.890081,0.003457893,-0.040840015,0.26521793,45.672672,-14.277862,22.102602,23.12735328,72.54183628,10.192683
1729838437027,0.07038736,-1.0910419,9.858506,0.003457893,-0.040840015,0.26521793,45.672672,-14.277862,22.102602,23.12735328,72.54183628,10.192683
1729838437028,0.0959111,-1.1000321,9.821761,0.003457893,-0.040840015,0.26521793,45.672672,-14.277862,22.102602,23.12735328,72.54183628,10.192683
1729838437028,0.13547267,-1.0791085,9.796553,0.003457893,-0.040840015,0.26521793,45.672672,-14.277862,22.102602,23.12735328,72.54183628,10.192683
1729838437037,0.13547267,-1.0791085,9.796553,0.003457893,-0.040840015,0.26521793,43.85064,-13.08729,21.87833,23.12735328,72.54183628,10.192683
1729838437049,0.13547267,-1.0791085,9.796553,0.004629452,-0.032885816,0.22518577,43.85064,-13.08729,21.87833,23.12735328,72.54183628,10.192683
1729838437093,0.16520767,-1.0828283,9.768489,0.004629452,-0.032885816,0.22518577,43.85064,-13.08729,21.87833,23.12735328,72.54183628,10.192683
1729838437093,0.13695177,-1.0806595,9.749149,0.004629452,-0.032885816,0.22518577,43.85064,-13.08729,21.87833,23.12735328,72.54183628,10.192683
1729838437094,0.19031918,-1.0374091,9.71609,0.004629452,-0.032885816,0.22518577,43.85064,-13.08729,21.87833,23.12735328,72.54183628,10.192683
1729838437195,0.23779875,-1.0583222,9.664877,0.004629452,-0.032885816,0.22518577,43.85064,-13.08729,21.87833,23.12735328,72.54183628,10.192683
1729838437195,0.23486513,-1.0579439,9.685402,0.004629452,-0.032885816,0.22518577,43.85064,-13.08729,21.87833,23.12735328,72.54183628,10.192683
1729838437196,0.20835075,-1.0595556,9.741662,0.004629452,-0.032885816,0.22518577,43.85064,-13.08729,21.87833,23.12735328,72.54183628,10.192683
1729838437196,0.22566368,-1.0670663,9.816939,0.004629452,-0.032885816,0.22518577,43.85064,-13.08729,21.87833,23.12735328,72.54183628,10.192683
1729838437196,0.14511718,-1.0942514,9.89092,0.004629452,-0.032885816,0.22518577,43.85064,-13.08729,21.87833,23.12735328,72.54183628,10.192683
1729838437219,0.066562325,-1.1158798,9.983006,0.004629452,-0.032885816,0.22518577,43.85064,-13.08729,21.87833,23.12735328,72.54183628,10.192683
1729838437240,0.066562325,-1.1158798,9.983006,0.004629452,-0.032885816,0.22518577,42.213013,-11.962333,21.653915,23.12735328,72.54183628,10.192683
1729838437256,0.066562325,-1.1158798,9.983006,0.0041006235,-0.026186481,0.18921995,42.213013,-11.962333,21.653915,23.12735328,72.54183628,10.192683
1729838437354,0.044635702,-1.1272005,10.024371,0.0041006235,-0.026186481,0.18921995,42.213013,-11.962333,21.653915,23.12735328,72.54183628,10.192683
1729838437354,-0.042417094,-1.1528871,10.067155,0.0041006235,-0.026186481,0.18921995,42.213013,-11.962333,21.653915,23.12735328,72.54183628,10.192683
1729838437354,-0.10703441,-1.1608741,10.093007,0.0041006235,-0.026186481,0.18921995,42.213013,-11.962333,21.653915,23.12735328,72.54183628,10.192683
1729838437355,-0.080124035,-1.1689386,10.106152,0.0041006235,-0.026186481,0.18921995,42.213013,-11.962333,21.653915,23.12735328,72.54183628,10.192683
1729838437355,-0.060031433,-1.1533763,10.053138,0.0041006235,-0.026186481,0.18921995,42.213013,-11.962333,21.653915,23.12735328,72.54183628,10.192683
1729838437355,-0.13679886,-1.1463103,9.99278,0.0041006235,-0.026186481,0.18921995,42.213013,-11.962333,21.653915,23.12735328,72.54183628,10.192683
1729838437439,-0.13679886,-1.1463103,9.99278,0.0041006235,-0.026186481,0.18921995,40.775414,-10.949866,21.440634,23.12735328,72.54183628,10.192683
1729838437464,-0.13679886,-1.1463103,9.99278,-7.925718E-5,-0.027577069,0.16005024,40.775414,-10.949866,21.440634,23.12735328,72.54183628,10.192683
1729838437515,-0.09532144,-1.1436486,9.916857,-7.925718E-5,-0.027577069,0.16005024,40.775414,-10.949866,21.440634,23.12735328,72.54183628,10.192683
1729838437515,0.008329123,-1.1238123,9.811133,-7.925718E-5,-0.027577069,0.16005024,40.775414,-10.949866,21.440634,23.12735328,72.54183628,10.192683
1729838437515,-0.010565024,-1.1074647,9.706097,-7.925718E-5,-0.027577069,0.16005024,40.775414,-10.949866,21.440634,23.12735328,72.54183628,10.192683
1729838437516,0.11142839,-1.082901,9.652575,-7.925718E-5,-0.027577069,0.16005024,40.775414,-10.949866,21.440634,23.12735328,72.54183628,10.192683
1729838437516,0.16882369,-1.0944765,9.606288,-7.925718E-5,-0.027577069,0.16005024,40.775414,-10.949866,21.440634,23.12735328,72.54183628,10.192683
1729838437516,0.21964523,-1.0729891,9.589,-7.925718E-5,-0.027577069,0.16005024,40.775414,-10.949866,21.440634,23.12735328,72.54183628,10.192683
1729838437516,0.2854271,-1.071831,9.583902,-7.925718E-5,-0.027577069,0.16005024,40.775414,-10.949866,21.440634,23.12735328,72.54183628,10.192683
1729838437639,0.2854271,-1.071831,9.583902,-7.925718E-5,-0.027577069,0.16005024,39.54658,-10.038643,21.213758,23.12735328,72.54183628,10.192683
1729838437651,0.2854271,-1.071831,9.583902,-7.925718E-5,-0.027577069,0.16005024,39.54658,-10.038643,21.213758,23.12735204,72.54186389,10.162254
1729838437662,0.30299774,-1.0826294,9.569535,-7.925718E-5,-0.027577069,0.16005024,39.54658,-10.038643,21.213758,23.12735204,72.54186389,10.162254
1729838437663,0.3358379,-1.0998824,9.627553,-7.925718E-5,-0.027577069,0.16005024,39.54658,-10.038643,21.213758,23.12735204,72.54186389,10.162254
1729838437663,0.6120404,-1.253545,9.724097,-7.925718E-5,-0.027577069,0.16005024,39.54658,-10.038643,21.213758,23.12735204,72.54186389,10.162254
1729838437663,0.4171298,-1.5650297,9.842489,-7.925718E-5,-0.027577069,0.16005024,39.54658,-10.038643,21.213758,23.12735204,72.54186389,10.162254
1729838437663,-0.07367417,-1.8581257,10.045478,-7.925718E-5,-0.027577069,0.16005024,39.54658,-10.038643,21.213758,23.12735204,72.54186389,10.162254
1729838437663,0.74732226,-2.1270592,10.294489,-7.925718E-5,-0.027577069,0.16005024,39.54658,-10.038643,21.213758,23.12735204,72.54186389,10.162254
1729838437663,1.0551262,-2.2102418,10.495373,-7.925718E-5,-0.027577069,0.16005024,39.54658,-10.038643,21.213758,23.12735204,72.54186389,10.162254
1729838437668,1.0551262,-2.2102418,10.495373,0.005067858,-0.012043473,0.13643959,39.54658,-10.038643,21.213758,23.12735204,72.54186389,10.162254
1729838437835,0.41937497,-2.2212744,10.685153,0.005067858,-0.012043473,0.13643959,39.54658,-10.038643,21.213758,23.12735204,72.54186389,10.162254
1729838437835,0.03268829,-2.1736298,10.796658,0.005067858,-0.012043473,0.13643959,39.54658,-10.038643,21.213758,23.12735204,72.54186389,10.162254
1729838437836,0.100447774,-2.0193427,10.777227,0.005067858,-0.012043473,0.13643959,39.54658,-10.038643,21.213758,23.12735204,72.54186389,10.162254
1729838437836,0.041355215,-1.7555739,10.644794,0.005067858,-0.012043473,0.13643959,39.54658,-10.038643,21.213758,23.12735204,72.54186389,10.162254
1729838437836,-0.37202066,-1.5296037,10.529635,0.005067858,-0.012043473,0.13643959,39.54658,-10.038643,21.213758,23.12735204,72.54186389,10.162254
1729838437836,-0.6680255,-1.3550489,10.26008,0.005067858,-0.012043473,0.13643959,39.54658,-10.038643,21.213758,23.12735204,72.54186389,10.162254
1729838437837,-0.6710506,-1.100071,9.973608,0.005067858,-0.012043473,0.13643959,39.54658,-10.038643,21.213758,23.12735204,72.54186389,10.162254
1729838437837,-0.43897405,-0.8532572,9.64812,0.005067858,-0.012043473,0.13643959,39.54658,-10.038643,21.213758,23.12735204,72.54186389,10.162254
1729838437841,-0.43897405,-0.8532572,9.64812,0.005067858,-0.012043473,0.13643959,38.522266,-9.2684145,20.968506,23.12735204,72.54186389,10.162254
1729838437877,-0.43897405,-0.8532572,9.64812,0.03407829,-0.026830621,0.1223769,38.522266,-9.2684145,20.968506,23.12735204,72.54186389,10.162254
1729838437996,-0.38695192,-0.6522169,9.274788,0.03407829,-0.026830621,0.1223769,38.522266,-9.2684145,20.968506,23.12735204,72.54186389,10.162254
1729838437996,-0.37009996,-0.502272,8.813649,0.03407829,-0.026830621,0.1223769,38.522266,-9.2684145,20.968506,23.12735204,72.54186389,10.162254
1729838437996,-0.36331826,-0.38877675,8.39784,0.03407829,-0.026830621,0.1223769,38.522266,-9.2684145,20.968506,23.12735204,72.54186389,10.162254
1729838437997,-0.36399466,-0.29128063,7.9862285,0.03407829,-0.026830621,0.1223769,38.522266,-9.2684145,20.968506,23.12735204,72.54186389,10.162254
1729838437997,-0.2515945,-0.25982413,7.9053144,0.03407829,-0.026830621,0.1223769,38.522266,-9.2684145,20.968506,23.12735204,72.54186389,10.162254
1729838437997,0.055952817,-0.32773972,7.8703737,0.03407829,-0.026830621,0.1223769,38.522266,-9.2684145,20.968506,23.12735204,72.54186389,10.162254
1729838437998,0.4923397,-0.39272022,7.9345446,0.03407829,-0.026830621,0.1223769,38.522266,-9.2684145,20.968506,23.12735204,72.54186389,10.162254
1729838437998,0.8903824,-0.43860295,8.07645,0.03407829,-0.026830621,0.1223769,38.522266,-9.2684145,20.968506,23.12735204,72.54186389,10.162254
1729838438039,0.8903824,-0.43860295,8.07645,0.03407829,-0.026830621,0.1223769,37.654064,-8.633482,20.757305,23.12735204,72.54186389,10.162254
1729838438084,0.8903824,-0.43860295,8.07645,-0.023103166,-0.023205461,0.09267862,37.654064,-8.633482,20.757305,23.12735204,72.54186389,10.162254
1729838438098,0.94895613,-0.5065355,8.249795,-0.023103166,-0.023205461,0.09267862,37.654064,-8.633482,20.757305,23.12735204,72.54186389,10.162254
1729838438098,1.1822159,-0.6260859,8.50548,-0.023103166,-0.023205461,0.09267862,37.654064,-8.633482,20.757305,23.12735204,72.54186389,10.162254
1729838438099,1.3933502,-0.79159665,8.780137,-0.023103166,-0.023205461,0.09267862,37.654064,-8.633482,20.757305,23.12735204,72.54186389,10.162254
1729838438099,1.1864648,-0.87854165,9.107061,-0.023103166,-0.023205461,0.09267862,37.654064,-8.633482,20.757305,23.12735204,72.54186389,10.162254
1729838438099,0.95993954,-0.9788454,9.494464,-0.023103166,-0.023205461,0.09267862,37.654064,-8.633482,20.757305,23.12735204,72.54186389,10.162254
1729838438242,0.95993954,-0.9788454,9.494464,-0.023103166,-0.023205461,0.09267862,36.937,-8.091785,20.554594,23.12735204,72.54186389,10.162254
1729838438264,0.8221491,-1.1302749,9.8789215,-0.023103166,-0.023205461,0.09267862,36.937,-8.091785,20.554594,23.12735204,72.54186389,10.162254
1729838438264,0.6799726,-1.3037016,10.35913,-0.023103166,-0.023205461,0.09267862,36.937,-8.091785,20.554594,23.12735204,72.54186389,10.162254
1729838438265,0.5801097,-1.4466305,10.853606,-0.023103166,-0.023205461,0.09267862,36.937,-8.091785,20.554594,23.12735204,72.54186389,10.162254
1729838438265,0.2889332,-1.5512826,11.178479,-0.023103166,-0.023205461,0.09267862,36.937,-8.091785,20.554594,23.12735204,72.54186389,10.162254
1729838438265,0.080877304,-1.6388329,11.547132,-0.023103166,-0.023205461,0.09267862,36.937,-8.091785,20.554594,23.12735204,72.54186389,10.162254
1729838438265,0.025220275,-1.681236,11.685324,-0.023103166,-0.023205461,0.09267862,36.937,-8.091785,20.554594,23.12735204,72.54186389,10.162254
1729838438266,-0.2713892,-1.6675413,11.662956,-0.023103166,-0.023205461,0.09267862,36.937,-8.091785,20.554594,23.12735204,72.54186389,10.162254
1729838438290,-0.2713892,-1.6675413,11.662956,-0.012648776,-0.0065914206,0.09818043,36.937,-8.091785,20.554594,23.12735204,72.54186389,10.162254
1729838438440,-0.2713892,-1.6675413,11.662956,-0.012648776,-0.0065914206,0.09818043,36.3446,-7.639678,20.366177,23.12735204,72.54186389,10.162254
1729838438464,-0.3824554,-1.6253592,11.627235,-0.012648776,-0.0065914206,0.09818043,36.3446,-7.639678,20.366177,23.12735204,72.54186389,10.162254
1729838438464,-0.3850471,-1.5680442,11.502228,-0.012648776,-0.0065914206,0.09818043,36.3446,-7.639678,20.366177,23.12735204,72.54186389,10.162254
1729838438464,-0.45734984,-1.4739769,11.294425,-0.012648776,-0.0065914206,0.09818043,36.3446,-7.639678,20.366177,23.12735204,72.54186389,10.162254
1729838438465,-0.3176645,-1.3482344,11.035222,-0.012648776,-0.0065914206,0.09818043,36.3446,-7.639678,20.366177,23.12735204,72.54186389,10.162254
1729838438465,-0.2997149,-1.2636724,10.755117,-0.012648776,-0.0065914206,0.09818043,36.3446,-7.639678,20.366177,23.12735204,72.54186389,10.162254
1729838438465,-0.239413,-1.1771195,10.428383,-0.012648776,-0.0065914206,0.09818043,36.3446,-7.639678,20.366177,23.12735204,72.54186389,10.162254
1729838438466,-0.25398305,-1.0979469,10.110165,-0.012648776,-0.0065914206,0.09818043,36.3446,-7.639678,20.366177,23.12735204,72.54186389,10.162254
1729838438466,-0.21826121,-0.9910595,9.824124,-0.012648776,-0.0065914206,0.09818043,36.3446,-7.639678,20.366177,23.12735204,72.54186389,10.162254
1729838438466,-0.16240558,-0.9628576,9.5275755,-0.012648776,-0.0065914206,0.09818043,36.3446,-7.639678,20.366177,23.12735204,72.54186389,10.162254
1729838438466,-0.13339405,-0.9201964,9.290695,-0.012648776,-0.0065914206,0.09818043,36.3446,-7.639678,20.366177,23.12735204,72.54186389,10.162254
1729838438497,-0.13339405,-0.9201964,9.290695,0.0042057578,-0.015993813,0.08187355,36.3446,-7.639678,20.366177,23.12735204,72.54186389,10.162254
1729838438641,-0.13339405,-0.9201964,9.290695,0.0042057578,-0.015993813,0.08187355,35.855682,-7.255492,20.192942,23.12735204,72.54186389,10.162254
1729838438652,-0.13339405,-0.9201964,9.290695,0.0042057578,-0.015993813,0.08187355,35.855682,-7.255492,20.192942,23.12735071,72.54188911,9.305271
1729838438663,-0.013634443,-0.8707534,9.102507,0.0042057578,-0.015993813,0.08187355,35.855682,-7.255492,20.192942,23.12735071,72.54188911,9.305271
1729838438663,0.105862185,-0.83885604,8.973492,0.0042057578,-0.015993813,0.08187355,35.855682,-7.255492,20.192942,23.12735071,72.54188911,9.305271
1729838438663,0.19093107,-0.8571268,8.908325,0.0042057578,-0.015993813,0.08187355,35.855682,-7.255492,20.192942,23.12735071,72.54188911,9.305271
1729838438664,0.27776983,-0.84554195,8.870789,0.0042057578,-0.015993813,0.08187355,35.855682,-7.255492,20.192942,23.12735071,72.54188911,9.305271
1729838438664,0.43051106,-0.8521864,8.883949,0.0042057578,-0.015993813,0.08187355,35.855682,-7.255492,20.192942,23.12735071,72.54188911,9.305271
1729838438664,0.38520646,-1.1360264,9.058387,0.0042057578,-0.015993813,0.08187355,35.855682,-7.255492,20.192942,23.12735071,72.54188911,9.305271
1729838438664,0.4360615,-1.3823607,9.444636,0.0042057578,-0.015993813,0.08187355,35.855682,-7.255492,20.192942,23.12735071,72.54188911,9.305271
1729838438665,0.690305,-1.5825388,9.983586,0.0042057578,-0.015993813,0.08187355,35.855682,-7.255492,20.192942,23.12735071,72.54188911,9.305271
1729838438665,0.8160527,-1.5757821,10.4511175,0.0042057578,-0.015993813,0.08187355,35.855682,-7.255492,20.192942,23.12735071,72.54188911,9.305271
1729838438703,0.8160527,-1.5757821,10.4511175,-0.023543987,-0.012306359,0.067239806,35.855682,-7.255492,20.192942,23.12735071,72.54188911,9.305271
1729838438795,0.5661023,-1.7347635,10.703228,-0.023543987,-0.012306359,0.067239806,35.855682,-7.255492,20.192942,23.12735071,72.54188911,9.305271
1729838438795,0.5897513,-1.8290473,10.809683,-0.023543987,-0.012306359,0.067239806,35.855682,-7.255492,20.192942,23.12735071,72.54188911,9.305271
1729838438795,0.5232467,-1.6590904,10.862303,-0.023543987,-0.012306359,0.067239806,35.855682,-7.255492,20.192942,23.12735071,72.54188911,9.305271
1729838438796,0.23411076,-1.6297251,10.7911,-0.023543987,-0.012306359,0.067239806,35.855682,-7.255492,20.192942,23.12735071,72.54188911,9.305271
1729838438796,0.089302525,-1.6487055,10.635792,-0.023543987,-0.012306359,0.067239806,35.855682,-7.255492,20.192942,23.12735071,72.54188911,9.305271
1729838438796,-0.07344338,-1.5850463,10.427319,-0.023543987,-0.012306359,0.067239806,35.855682,-7.255492,20.192942,23.12735071,72.54188911,9.305271
1729838438839,-0.07344338,-1.5850463,10.427319,-0.023543987,-0.012306359,0.067239806,35.442047,-6.903144,20.016853,23.12735071,72.54188911,9.305271
1729838438909,-0.07344338,-1.5850463,10.427319,-0.032823995,-0.015067982,0.07263702,35.442047,-6.903144,20.016853,23.12735071,72.54188911,9.305271
1729838438954,-0.22649157,-1.4814768,10.19737,-0.032823995,-0.015067982,0.07263702,35.442047,-6.903144,20.016853,23.12735071,72.54188911,9.305271
1729838438955,-0.17712547,-1.4381028,9.839572,-0.032823995,-0.015067982,0.07263702,35.442047,-6.903144,20.016853,23.12735071,72.54188911,9.305271
1729838438955,-0.24770242,-1.3754076,9.418617,-0.032823995,-0.015067982,0.07263702,35.442047,-6.903144,20.016853,23.12735071,72.54188911,9.305271
1729838438955,-0.19983692,-1.2965375,8.97633,-0.032823995,-0.015067982,0.07263702,35.442047,-6.903144,20.016853,23.12735071,72.54188911,9.305271
1729838438956,-0.17195329,-1.224588,8.47283,-0.032823995,-0.015067982,0.07263702,35.442047,-6.903144,20.016853,23.12735071,72.54188911,9.305271
1729838438956,-0.19618678,-1.1426216,7.9532595,-0.032823995,-0.015067982,0.07263702,35.442047,-6.903144,20.016853,23.12735071,72.54188911,9.305271
1729838438956,-0.12991053,-1.0101691,7.4454794,-0.032823995,-0.015067982,0.07263702,35.442047,-6.903144,20.016853,23.12735071,72.54188911,9.305271
1729838439040,-0.12991053,-1.0101691,7.4454794,-0.032823995,-0.015067982,0.07263702,35.09239,-6.5950155,19.857233,23.12735071,72.54188911,9.305271
1729838439106,0.061654888,-0.9136588,7.1055365,-0.032823995,-0.015067982,0.07263702,35.09239,-6.5950155,19.857233,23.12735071,72.54188911,9.305271
1729838439107,-0.021264348,-0.9647058,7.2407207,-0.032823995,-0.015067982,0.07263702,35.09239,-6.5950155,19.857233,23.12735071,72.54188911,9.305271
1729838439107,0.19583009,-0.8719043,7.6082506,-0.032823995,-0.015067982,0.07263702,35.09239,-6.5950155,19.857233,23.12735071,72.54188911,9.305271
1729838439107,0.52360344,-0.83858037,7.8846874,-0.032823995,-0.015067982,0.07263702,35.09239,-6.5950155,19.857233,23.12735071,72.54188911,9.305271
1729838439108,0.42211306,-0.8705453,8.227034,-0.032823995,-0.015067982,0.07263702,35.09239,-6.5950155,19.857233,23.12735071,72.54188911,9.305271
1729838439108,0.41773036,-0.86967665,8.751797,-0.032823995,-0.015067982,0.07263702,35.09239,-6.5950155,19.857233,23.12735071,72.54188911,9.305271
1729838439108,0.51221025,-0.78930074,9.206663,-0.032823995,-0.015067982,0.07263702,35.09239,-6.5950155,19.857233,23.12735071,72.54188911,9.305271
1729838439108,0.47006732,-0.8308823,9.647724,-0.032823995,-0.015067982,0.07263702,35.09239,-6.5950155,19.857233,23.12735071,72.54188911,9.305271
1729838439115,0.47006732,-0.8308823,9.647724,0.029848734,-0.018010316,0.056093764,35.09239,-6.5950155,19.857233,23.12735071,72.54188911,9.305271
1729838439225,0.5314677,-0.80277175,10.195468,0.029848734,-0.018010316,0.056093764,35.09239,-6.5950155,19.857233,23.12735071,72.54188911,9.305271
1729838439225,0.5656328,-0.7544408,10.780583,0.029848734,-0.018010316,0.056093764,35.09239,-6.5950155,19.857233,23.12735071,72.54188911,9.305271
1729838439226,0.51603574,-0.74173814,11.302275,0.029848734,-0.018010316,0.056093764,35.09239,-6.5950155,19.857233,23.12735071,72.54188911,9.305271
1729838439226,0.599708,-0.6639788,11.782679,0.029848734,-0.018010316,0.056093764,35.09239,-6.5950155,19.857233,23.12735071,72.54188911,9.305271
1729838439226,0.55633676,-0.6215121,12.059444,0.029848734,-0.018010316,0.056093764,35.09239,-6.5950155,19.857233,23.12735071,72.54188911,9.305271
1729838439238,0.55633676,-0.6215121,12.059444,0.029848734,-0.018010316,0.056093764,34.80141,-6.3185124,19.729536,23.12735071,72.54188911,9.305271
1729838439323,0.55633676,-0.6215121,12.059444,0.012394731,-0.006069949,0.047471184,34.80141,-6.3185124,19.729536,23.12735071,72.54188911,9.305271
1729838439425,0.44279623,-0.65764844,12.113359,0.012394731,-0.006069949,0.047471184,34.80141,-6.3185124,19.729536,23.12735071,72.54188911,9.305271
1729838439425,0.5395611,-0.71251965,12.048815,0.012394731,-0.006069949,0.047471184,34.80141,-6.3185124,19.729536,23.12735071,72.54188911,9.305271
1729838439426,0.3720676,-0.7857287,11.880649,0.012394731,-0.006069949,0.047471184,34.80141,-6.3185124,19.729536,23.12735071,72.54188911,9.305271
1729838439426,0.35340685,-0.8776758,11.667033,0.012394731,-0.006069949,0.047471184,34.80141,-6.3185124,19.729536,23.12735071,72.54188911,9.305271
1729838439426,0.345896,-0.93053555,11.397915,0.012394731,-0.006069949,0.047471184,34.80141,-6.3185124,19.729536,23.12735071,72.54188911,9.305271
1729838439426,0.28150246,-0.8662231,11.078772,0.012394731,-0.006069949,0.047471184,34.80141,-6.3185124,19.729536,23.12735071,72.54188911,9.305271
1729838439427,0.21371642,-0.7109247,10.713507,0.012394731,-0.006069949,0.047471184,34.80141,-6.3185124,19.729536,23.12735071,72.54188911,9.305271
1729838439427,0.04881955,-0.6558385,10.30632,0.012394731,-0.006069949,0.047471184,34.80141,-6.3185124,19.729536,23.12735071,72.54188911,9.305271
1729838439427,0.056642886,-0.69623613,9.938576,0.012394731,-0.006069949,0.047471184,34.80141,-6.3185124,19.729536,23.12735071,72.54188911,9.305271
1729838439447,0.056642886,-0.69623613,9.938576,0.012394731,-0.006069949,0.047471184,34.527378,-6.0448103,19.64613,23.12735071,72.54188911,9.305271
1729838439447,0.15502523,-0.5974276,9.616265,0.012394731,-0.006069949,0.047471184,34.527378,-6.0448103,19.64613,23.12735071,72.54188911,9.305271
1729838439510,0.16075,-0.50258815,9.338676,0.012394731,-0.006069949,0.047471184,34.527378,-6.0448103,19.64613,23.12735071,72.54188911,9.305271
1729838439510,0.12895893,-0.5731573,9.115887,0.012394731,-0.006069949,0.047471184,34.527378,-6.0448103,19.64613,23.12735071,72.54188911,9.305271
1729838439510,0.08809236,-0.60281307,9.014824,0.012394731,-0.006069949,0.047471184,34.527378,-6.0448103,19.64613,23.12735071,72.54188911,9.305271
1729838439528,0.08809236,-0.60281307,9.014824,-7.132618E-4,-0.0032982542,0.044482656,34.527378,-6.0448103,19.64613,23.12735071,72.54188911,9.305271
1729838439639,0.08809236,-0.60281307,9.014824,-7.132618E-4,-0.0032982542,0.044482656,34.3119,-5.7695985,19.519403,23.12735071,72.54188911,9.305271
1729838439651,0.08809236,-0.60281307,9.014824,-7.132618E-4,-0.0032982542,0.044482656,34.3119,-5.7695985,19.519403,23.12735151,72.54191359,9.041282
1729838439659,0.18700434,-0.46215075,8.980036,-7.132618E-4,-0.0032982542,0.044482656,34.3119,-5.7695985,19.519403,23.12735151,72.54191359,9.041282
1729838439659,0.15570517,-0.42391804,8.961417,-7.132618E-4,-0.0032982542,0.044482656,34.3119,-5.7695985,19.519403,23.12735151,72.54191359,9.041282
1729838439659,0.15806365,-0.48055023,8.977749,-7.132618E-4,-0.0032982542,0.044482656,34.3119,-5.7695985,19.519403,23.12735151,72.54191359,9.041282
1729838439660,0.12417775,-0.45742127,9.053387,-7.132618E-4,-0.0032982542,0.044482656,34.3119,-5.7695985,19.519403,23.12735151,72.54191359,9.041282
1729838439660,0.18045887,-0.40206864,9.182451,-7.132618E-4,-0.0032982542,0.044482656,34.3119,-5.7695985,19.519403,23.12735151,72.54191359,9.041282
1729838439660,0.19186462,-0.4712063,9.298265,-7.132618E-4,-0.0032982542,0.044482656,34.3119,-5.7695985,19.519403,23.12735151,72.54191359,9.041282
1729838439660,0.080390975,-0.46573877,9.434586,-7.132618E-4,-0.0032982542,0.044482656,34.3119,-5.7695985,19.519403,23.12735151,72.54191359,9.041282
1729838439710,0.42838073,-0.44593102,9.619255,-7.132618E-4,-0.0032982542,0.044482656,34.3119,-5.7695985,19.519403,23.12735151,72.54191359,9.041282
1729838439710,0.21409038,-0.4375026,9.772374,-7.132618E-4,-0.0032982542,0.044482656,34.3119,-5.7695985,19.519403,23.12735151,72.54191359,9.041282
1729838439711,-0.04144962,-0.44033113,9.893673,-7.132618E-4,-0.0032982542,0.044482656,34.3119,-5.7695985,19.519403,23.12735151,72.54191359,9.041282
1729838439735,-0.04144962,-0.44033113,9.893673,0.010424956,-0.006975743,0.03787687,34.3119,-5.7695985,19.519403,23.12735151,72.54191359,9.041282
1729838439840,-0.04144962,-0.44033113,9.893673,0.010424956,-0.006975743,0.03787687,34.124523,-5.523179,19.425524,23.12735151,72.54191359,9.041282
1729838439911,0.3301904,-0.27473748,10.009136,0.010424956,-0.006975743,0.03787687,34.124523,-5.523179,19.425524,23.12735151,72.54191359,9.041282
1729838439912,0.5433947,-0.17289066,9.999693,0.010424956,-0.006975743,0.03787687,34.124523,-5.523179,19.425524,23.12735151,72.54191359,9.041282
1729838439912,-0.021236569,-0.18461365,10.066196,0.010424956,-0.006975743,0.03787687,34.124523,-5.523179,19.425524,23.12735151,72.54191359,9.041282
1729838439912,0.58253247,-0.21205786,10.176468,0.010424956,-0.006975743,0.03787687,34.124523,-5.523179,19.425524,23.12735151,72.54191359,9.041282
1729838439913,0.6256272,-0.2362864,10.2480545,0.010424956,-0.006975743,0.03787687,34.124523,-5.523179,19.425524,23.12735151,72.54191359,9.041282
1729838439913,0.4245297,-0.18388456,10.277567,0.010424956,-0.006975743,0.03787687,34.124523,-5.523179,19.425524,23.12735151,72.54191359,9.041282
1729838439913,0.35721102,-0.24018845,10.29364,0.010424956,-0.006975743,0.03787687,34.124523,-5.523179,19.425524,23.12735151,72.54191359,9.041282
1729838439914,0.5176333,-0.25244987,10.284843,0.010424956,-0.006975743,0.03787687,34.124523,-5.523179,19.425524,23.12735151,72.54191359,9.041282
1729838439914,0.46579164,-0.24024506,10.269072,0.010424956,-0.006975743,0.03787687,34.124523,-5.523179,19.425524,23.12735151,72.54191359,9.041282
1729838439942,0.46579164,-0.24024506,10.269072,0.0056216167,-0.003992346,0.03317256,34.124523,-5.523179,19.425524,23.12735151,72.54191359,9.041282
1729838440039,0.46579164,-0.24024506,10.269072,0.0056216167,-0.003992346,0.03317256,33.97837,-5.2960434,19.32042,23.12735151,72.54191359,9.041282
1729838440112,0.186711,-0.27546626,10.249157,0.0056216167,-0.003992346,0.03317256,33.97837,-5.2960434,19.32042,23.12735151,72.54191359,9.041282
1729838440113,0.42849153,-0.3872724,10.208578,0.0056216167,-0.003992346,0.03317256,33.97837,-5.2960434,19.32042,23.12735151,72.54191359,9.041282
1729838440113,0.24684104,-0.37071526,10.171091,0.0056216167,-0.003992346,0.03317256,33.97837,-5.2960434,19.32042,23.12735151,72.54191359,9.041282
1729838440114,0.025548548,-0.28915447,10.126386,0.0056216167,-0.003992346,0.03317256,33.97837,-5.2960434,19.32042,23.12735151,72.54191359,9.041282
1729838440114,0.28903317,-0.1636067,9.978995,0.0056216167,-0.003992346,0.03317256,33.97837,-5.2960434,19.32042,23.12735151,72.54191359,9.041282
1729838440114,0.24689953,-0.14679763,9.944713,0.0056216167,-0.003992346,0.03317256,33.97837,-5.2960434,19.32042,23.12735151,72.54191359,9.041282
1729838440114,0.30017173,-0.23193467,9.977226,0.0056216167,-0.003992346,0.03317256,33.97837,-5.2960434,19.32042,23.12735151,72.54191359,9.041282
1729838440115,0.33393604,-0.1417591,9.888741,0.0056216167,-0.003992346,0.03317256,33.97837,-5.2960434,19.32042,23.12735151,72.54191359,9.041282
1729838440115,0.18938209,0.16260478,9.800365,0.0056216167,-0.003992346,0.03317256,33.97837,-5.2960434,19.32042,23.12735151,72.54191359,9.041282
1729838440150,0.18938209,0.16260478,9.800365,0.005719023,-0.0038047417,0.029378569,33.97837,-5.2960434,19.32042,23.12735151,72.54191359,9.041282
1729838440235,0.30715877,-0.0029571056,9.740791,0.005719023,-0.0038047417,0.029378569,33.97837,-5.2960434,19.32042,23.12735151,72.54191359,9.041282
1729838440235,0.27982473,-0.11650331,9.732374,0.005719023,-0.0038047417,0.029378569,33.97837,-5.2960434,19.32042,23.12735151,72.54191359,9.041282
1729838440235,0.21273316,0.120835334,9.761414,0.005719023,-0.0038047417,0.029378569,33.97837,-5.2960434,19.32042,23.12735151,72.54191359,9.041282
1729838440236,0.34797323,0.20350778,9.728534,0.005719023,-0.0038047417,0.029378569,33.97837,-5.2960434,19.32042,23.12735151,72.54191359,9.041282
1729838440236,0.27574646,0.007512048,9.754752,0.005719023,-0.0038047417,0.029378569,33.97837,-5.2960434,19.32042,23.12735151,72.54191359,9.041282
1729838440236,0.4519831,0.07683718,9.899675,0.005719023,-0.0038047417,0.029378569,33.97837,-5.2960434,19.32042,23.12735151,72.54191359,9.041282
1729838440239,0.4519831,0.07683718,9.899675,0.005719023,-0.0038047417,0.029378569,33.838947,-5.106835,19.232586,23.12735151,72.54191359,9.041282
1729838440356,0.4519831,0.07683718,9.899675,0.007476826,1.9378983E-4,0.021487001,33.838947,-5.106835,19.232586,23.12735151,72.54191359,9.041282
1729838440395,0.3487849,0.21305506,10.069452,0.007476826,1.9378983E-4,0.021487001,33.838947,-5.106835,19.232586,23.12735151,72.54191359,9.041282
1729838440395,0.37928718,0.22918785,9.910238,0.007476826,1.9378983E-4,0.021487001,33.838947,-5.106835,19.232586,23.12735151,72.54191359,9.041282
1729838440395,0.41661024,0.20572317,9.699477,0.007476826,1.9378983E-4,0.021487001,33.838947,-5.106835,19.232586,23.12735151,72.54191359,9.041282
1729838440396,0.44658834,0.32752976,9.609473,0.007476826,1.9378983E-4,0.021487001,33.838947,-5.106835,19.232586,23.12735151,72.54191359,9.041282
1729838440396,0.4663834,0.39626116,9.60088,0.007476826,1.9378983E-4,0.021487001,33.838947,-5.106835,19.232586,23.12735151,72.54191359,9.041282
1729838440396,0.50578874,0.33686936,9.621522,0.007476826,1.9378983E-4,0.021487001,33.838947,-5.106835,19.232586,23.12735151,72.54191359,9.041282
1729838440397,0.58672476,0.38315454,9.751216,0.007476826,1.9378983E-4,0.021487001,33.838947,-5.106835,19.232586,23.12735151,72.54191359,9.041282
1729838440439,0.58672476,0.38315454,9.751216,0.007476826,1.9378983E-4,0.021487001,33.712406,-4.9554677,19.173569,23.12735151,72.54191359,9.041282
1729838440555,0.3634974,0.37519765,9.842888,0.007476826,1.9378983E-4,0.021487001,33.712406,-4.9554677,19.173569,23.12735151,72.54191359,9.041282
1729838440555,0.4280263,0.42625988,9.922327,0.007476826,1.9378983E-4,0.021487001,33.712406,-4.9554677,19.173569,23.12735151,72.54191359,9.041282
1729838440555,0.21356754,0.41590327,9.980615,0.007476826,1.9378983E-4,0.021487001,33.712406,-4.9554677,19.173569,23.12735151,72.54191359,9.041282
1729838440556,0.22505146,0.36777747,10.071272,0.007476826,1.9378983E-4,0.021487001,33.712406,-4.9554677,19.173569,23.12735151,72.54191359,9.041282
1729838440556,0.15443797,0.36086208,10.174785,0.007476826,1.9378983E-4,0.021487001,33.712406,-4.9554677,19.173569,23.12735151,72.54191359,9.041282
1729838440556,0.1826531,0.35473156,10.269679,0.007476826,1.9378983E-4,0.021487001,33.712406,-4.9554677,19.173569,23.12735151,72.54191359,9.041282
1729838440557,-0.029271409,0.31895974,10.359951,0.007476826,1.9378983E-4,0.021487001,33.712406,-4.9554677,19.173569,23.12735151,72.54191359,9.041282
1729838440557,0.16071056,0.48200738,10.3524885,0.007476826,1.9378983E-4,0.021487001,33.712406,-4.9554677,19.173569,23.12735151,72.54191359,9.041282
1729838440562,0.16071056,0.48200738,10.3524885,0.009829909,6.1318045E-4,0.014807229,33.712406,-4.9554677,19.173569,23.12735151,72.54191359,9.041282
1729838440641,0.16071056,0.48200738,10.3524885,0.009829909,6.1318045E-4,0.014807229,33.611176,-4.8381243,19.133854,23.12735151,72.54191359,9.041282
1729838440651,0.16071056,0.48200738,10.3524885,0.009829909,6.1318045E-4,0.014807229,33.611176,-4.8381243,19.133854,23.12735101,72.54194813,12.737631
1729838440661,0.13311481,0.44339257,10.131403,0.009829909,6.1318045E-4,0.014807229,33.611176,-4.8381243,19.133854,23.12735101,72.54194813,12.737631
1729838440662,0.16415888,0.48392648,9.924385,0.009829909,6.1318045E-4,0.014807229,33.611176,-4.8381243,19.133854,23.12735101,72.54194813,12.737631
1729838440662,0.38053957,0.414539,9.973167,0.009829909,6.1318045E-4,0.014807229,33.611176,-4.8381243,19.133854,23.12735101,72.54194813,12.737631
1729838440662,0.30407274,0.53071404,10.099532,0.009829909,6.1318045E-4,0.014807229,33.611176,-4.8381243,19.133854,23.12735101,72.54194813,12.737631
1729838440662,0.59990835,0.416316,10.033485,0.009829909,6.1318045E-4,0.014807229,33.611176,-4.8381243,19.133854,23.12735101,72.54194813,12.737631
1729838440768,0.59990835,0.416316,10.033485,0.00590916,-6.090122E-4,0.009310694,33.611176,-4.8381243,19.133854,23.12735101,72.54194813,12.737631
1729838440826,0.2796474,0.4485065,10.040349,0.00590916,-6.090122E-4,0.009310694,33.611176,-4.8381243,19.133854,23.12735101,72.54194813,12.737631
1729838440826,0.36860335,0.41683117,10.113795,0.00590916,-6.090122E-4,0.009310694,33.611176,-4.8381243,19.133854,23.12735101,72.54194813,12.737631
1729838440826,0.48917985,0.3018797,10.234049,0.00590916,-6.090122E-4,0.009310694,33.611176,-4.8381243,19.133854,23.12735101,72.54194813,12.737631
1729838440827,0.12262994,0.40517282,10.291607,0.00590916,-6.090122E-4,0.009310694,33.611176,-4.8381243,19.133854,23.12735101,72.54194813,12.737631
1729838440827,0.27672815,0.3774982,10.106985,0.00590916,-6.090122E-4,0.009310694,33.611176,-4.8381243,19.133854,23.12735101,72.54194813,12.737631
1729838440827,0.36459297,0.46853903,9.877573,0.00590916,-6.090122E-4,0.009310694,33.611176,-4.8381243,19.133854,23.12735101,72.54194813,12.737631
1729838440827,0.17705819,0.21726386,9.929018,0.00590916,-6.090122E-4,0.009310694,33.611176,-4.8381243,19.133854,23.12735101,72.54194813,12.737631
1729838440838,0.17705819,0.21726386,9.929018,0.00590916,-6.090122E-4,0.009310694,33.51144,-4.7554994,19.079582,23.12735101,72.54194813,12.737631
1729838440976,0.17705819,0.21726386,9.929018,0.0035972279,9.311171E-5,0.009403323,33.51144,-4.7554994,19.079582,23.12735101,72.54194813,12.737631
1729838441026,0.4405101,0.77070063,9.847662,0.0035972279,9.311171E-5,0.009403323,33.51144,-4.7554994,19.079582,23.12735101,72.54194813,12.737631
1729838441026,0.17749275,0.11406779,9.575837,0.0035972279,9.311171E-5,0.009403323,33.51144,-4.7554994,19.079582,23.12735101,72.54194813,12.737631
1729838441026,0.316431,0.5024608,9.824141,0.0035972279,9.311171E-5,0.009403323,33.51144,-4.7554994,19.079582,23.12735101,72.54194813,12.737631
1729838441027,0.19595635,0.35435146,9.885794,0.0035972279,9.311171E-5,0.009403323,33.51144,-4.7554994,19.079582,23.12735101,72.54194813,12.737631
1729838441027,0.3520194,0.37727982,9.889653,0.0035972279,9.311171E-5,0.009403323,33.51144,-4.7554994,19.079582,23.12735101,72.54194813,12.737631
1729838441027,0.15012993,0.27478495,9.912721,0.0035972279,9.311171E-5,0.009403323,33.51144,-4.7554994,19.079582,23.12735101,72.54194813,12.737631
1729838441027,0.22347388,0.24686685,9.940746,0.0035972279,9.311171E-5,0.009403323,33.51144,-4.7554994,19.079582,23.12735101,72.54194813,12.737631
1729838441028,0.30452192,0.2939242,9.990564,0.0035972279,9.311171E-5,0.009403323,33.51144,-4.7554994,19.079582,23.12735101,72.54194813,12.737631
1729838441028,0.22220178,0.22138064,9.989023,0.0035972279,9.311171E-5,0.009403323,33.51144,-4.7554994,19.079582,23.12735101,72.54194813,12.737631
1729838441028,0.29130083,0.18260801,9.995806,0.0035972279,9.311171E-5,0.009403323,33.51144,-4.7554994,19.079582,23.12735101,72.54194813,12.737631
1729838441038,0.29130083,0.18260801,9.995806,0.0035972279,9.311171E-5,0.009403323,33.416653,-4.7081494,19.013666,23.12735101,72.54194813,12.737631
1729838441120,0.24069771,0.19944635,10.032697,0.0035972279,9.311171E-5,0.009403323,33.416653,-4.7081494,19.013666,23.12735101,72.54194813,12.737631
1729838441120,0.23084334,0.23995593,10.040914,0.0035972279,9.311171E-5,0.009403323,33.416653,-4.7081494,19.013666,23.12735101,72.54194813,12.737631
1729838441121,0.21972951,0.14602256,10.016621,0.0035972279,9.311171E-5,0.009403323,33.416653,-4.7081494,19.013666,23.12735101,72.54194813,12.737631
1729838441121,0.027189344,0.17352794,10.018243,0.0035972279,9.311171E-5,0.009403323,33.416653,-4.7081494,19.013666,23.12735101,72.54194813,12.737631
1729838441182,0.027189344,0.17352794,10.018243,0.0016865961,-0.003040921,0.011035131,33.416653,-4.7081494,19.013666,23.12735101,72.54194813,12.737631
1729838441225,0.010864134,0.14875257,9.970009,0.0016865961,-0.003040921,0.011035131,33.416653,-4.7081494,19.013666,23.12735101,72.54194813,12.737631
1729838441225,0.035849843,0.1662603,9.9557085,0.0016865961,-0.003040921,0.011035131,33.416653,-4.7081494,19.013666,23.12735101,72.54194813,12.737631
1729838441226,-0.018219447,0.12499229,9.9374485,0.0016865961,-0.003040921,0.011035131,33.416653,-4.7081494,19.013666,23.12735101,72.54194813,12.737631
1729838441226,0.11044942,0.11758108,9.953828,0.0016865961,-0.003040921,0.011035131,33.416653,-4.7081494,19.013666,23.12735101,72.54194813,12.737631
1729838441226,0.12736255,0.16010676,9.943721,0.0016865961,-0.003040921,0.011035131,33.416653,-4.7081494,19.013666,23.12735101,72.54194813,12.737631
1729838441239,0.12736255,0.16010676,9.943721,0.0016865961,-0.003040921,0.011035131,33.31832,-4.6777697,18.975933,23.12735101,72.54194813,12.737631
1729838441355,0.26914835,0.12808542,9.923791,0.0016865961,-0.003040921,0.011035131,33.31832,-4.6777697,18.975933,23.12735101,72.54194813,12.737631
1729838441355,0.39047328,0.12735368,9.936562,0.0016865961,-0.003040921,0.011035131,33.31832,-4.6777697,18.975933,23.12735101,72.54194813,12.737631
1729838441355,0.45044446,0.13945027,9.931463,0.0016865961,-0.003040921,0.011035131,33.31832,-4.6777697,18.975933,23.12735101,72.54194813,12.737631
1729838441355,0.3251811,0.13704377,9.936717,0.0016865961,-0.003040921,0.011035131,33.31832,-4.6777697,18.975933,23.12735101,72.54194813,12.737631
1729838441356,0.350115,0.12805974,9.952046,0.0016865961,-0.003040921,0.011035131,33.31832,-4.6777697,18.975933,23.12735101,72.54194813,12.737631
1729838441356,0.36168724,0.097422875,9.952825,0.0016865961,-0.003040921,0.011035131,33.31832,-4.6777697,18.975933,23.12735101,72.54194813,12.737631
1729838441388,0.36168724,0.097422875,9.952825,0.0010743877,-0.006769876,0.007911808,33.31832,-4.6777697,18.975933,23.12735101,72.54194813,12.737631
1729838441439,0.36168724,0.097422875,9.952825,0.0010743877,-0.006769876,0.007911808,33.217155,-4.664716,18.964497,23.12735101,72.54194813,12.737631
1729838441515,0.21505266,0.06764917,9.937176,0.0010743877,-0.006769876,0.007911808,33.217155,-4.664716,18.964497,23.12735101,72.54194813,12.737631
1729838441515,0.2574659,0.018944848,9.926452,0.0010743877,-0.006769876,0.007911808,33.217155,-4.664716,18.964497,23.12735101,72.54194813,12.737631
1729838441515,0.31628183,-0.020257894,9.939049,0.0010743877,-0.006769876,0.007911808,33.217155,-4.664716,18.964497,23.12735101,72.54194813,12.737631
1729838441515,0.30973536,-0.090503454,9.973892,0.0010743877,-0.006769876,0.007911808,33.217155,-4.664716,18.964497,23.12735101,72.54194813,12.737631
1729838441516,0.4089449,-0.119302094,9.987171,0.0010743877,-0.006769876,0.007911808,33.217155,-4.664716,18.964497,23.12735101,72.54194813,12.737631
1729838441516,0.3925996,-0.13336791,10.007724,0.0010743877,-0.006769876,0.007911808,33.217155,-4.664716,18.964497,23.12735101,72.54194813,12.737631
1729838441516,0.37976268,-0.16280602,10.024525,0.0010743877,-0.006769876,0.007911808,33.217155,-4.664716,18.964497,23.12735101,72.54194813,12.737631
1729838441595,0.37976268,-0.16280602,10.024525,0.003791661,-0.0040719984,0.006909768,33.217155,-4.664716,18.964497,23.12735101,72.54194813,12.737631
1729838441639,0.37976268,-0.16280602,10.024525,0.003791661,-0.0040719984,0.006909768,33.117474,-4.6617727,19.000347,23.12735101,72.54194813,12.737631
1729838441649,0.37976268,-0.16280602,10.024525,0.003791661,-0.0040719984,0.006909768,33.117474,-4.6617727,19.000347,23.12735145,72.54199032,15.589052
1729838441656,0.39282316,-0.1237842,10.000159,0.003791661,-0.0040719984,0.006909768,33.117474,-4.6617727,19.000347,23.12735145,72.54199032,15.589052
1729838441657,0.38101828,-0.10979506,9.9275465,0.003791661,-0.0040719984,0.006909768,33.117474,-4.6617727,19.000347,23.12735145,72.54199032,15.589052
1729838441657,0.37564218,-0.10063765,9.915278,0.003791661,-0.0040719984,0.006909768,33.117474,-4.6617727,19.000347,23.12735145,72.54199032,15.589052
1729838441657,0.32085273,-0.07859587,9.978206,0.003791661,-0.0040719984,0.006909768,33.117474,-4.6617727,19.000347,23.12735145,72.54199032,15.589052
1729838441658,0.3966623,-0.04528945,9.977461,0.003791661,-0.0040719984,0.006909768,33.117474,-4.6617727,19.000347,23.12735145,72.54199032,15.589052
1729838441658,0.30991212,-0.056091987,9.963585,0.003791661,-0.0040719984,0.006909768,33.117474,-4.6617727,19.000347,23.12735145,72.54199032,15.589052
1729838441658,0.22328362,-0.023218548,9.931308,0.003791661,-0.0040719984,0.006909768,33.117474,-4.6617727,19.000347,23.12735145,72.54199032,15.589052
1729838441787,0.3162142,-0.0070892917,9.895077,0.003791661,-0.0040719984,0.006909768,33.117474,-4.6617727,19.000347,23.12735145,72.54199032,15.589052
