Timestamp,Accelerometer_X,Accelerometer_Y,Accelerometer_Z,Gyroscope_X,Gyroscope_Y,Gyroscope_Z,Magnetometer_X,Magnetometer_Y,Magnetometer_Z,Latitude,Longitude,Speed
1729838158234,0.5830096,0.029325657,9.979181,5.719962E-4,0.008178098,-0.038931616,36.34844,0.068167076,19.420042,23.1300716,72.54555281,2.6116958
1729838158234,0.59753436,0.01317139,9.970345,5.719962E-4,0.008178098,-0.038931616,36.34844,0.068167076,19.420042,23.1300716,72.54555281,2.6116958
1729838158234,0.5897723,-0.004059105,9.971651,5.719962E-4,0.008178098,-0.038931616,36.34844,0.068167076,19.420042,23.1300716,72.54555281,2.6116958
1729838158234,0.59983385,-0.0044436953,9.979276,5.719962E-4,0.008178098,-0.038931616,36.34844,0.068167076,19.420042,23.1300716,72.54555281,2.6116958
1729838158234,0.5567963,-0.00391388,9.9759245,5.719962E-4,0.008178098,-0.038931616,36.34844,0.068167076,19.420042,23.1300716,72.54555281,2.6116958
1729838158234,0.5319376,-0.005404285,9.967739,5.719962E-4,0.008178098,-0.038931616,36.34844,0.068167076,19.420042,23.1300716,72.54555281,2.6116958
1729838158234,0.5021204,8.2114013E-4,9.94145,5.719962E-4,0.008178098,-0.038931616,36.34844,0.068167076,19.420042,23.1300716,72.54555281,2.6116958
1729838158237,0.5021204,8.2114013E-4,9.94145,5.719962E-4,0.008178098,-0.038931616,35.915,0.03203366,19.072285,23.1300716,72.54555281,2.6116958
1729838158268,0.47288275,-0.005085862,9.92329,5.719962E-4,0.008178098,-0.038931616,35.915,0.03203366,19.072285,23.1300716,72.54555281,2.6116958
1729838158268,0.4405196,-0.0044276128,9.917257,5.719962E-4,0.008178098,-0.038931616,35.915,0.03203366,19.072285,23.1300716,72.54555281,2.6116958
1729838158373,0.4405196,-0.0044276128,9.917257,-8.25219E-4,0.0064813923,-0.03902545,35.915,0.03203366,19.072285,23.1300716,72.54555281,2.6116958
1729838158393,0.42539677,-0.014309792,9.931693,-8.25219E-4,0.0064813923,-0.03902545,35.915,0.03203366,19.072285,23.1300716,72.54555281,2.6116958
1729838158394,0.41628954,-0.012404962,9.945515,-8.25219E-4,0.0064813923,-0.03902545,35.915,0.03203366,19.072285,23.1300716,72.54555281,2.6116958
1729838158394,0.3835202,-0.026554087,9.972843,-8.25219E-4,0.0064813923,-0.03902545,35.915,0.03203366,19.072285,23.1300716,72.54555281,2.6116958
1729838158394,0.4046826,-0.04995714,9.991476,-8.25219E-4,0.0064813923,-0.03902545,35.915,0.03203366,19.072285,23.1300716,72.54555281,2.6116958
1729838158395,0.40737522,-0.048220955,10.013082,-8.25219E-4,0.0064813923,-0.03902545,35.915,0.03203366,19.072285,23.1300716,72.54555281,2.6116958
1729838158439,0.40737522,-0.048220955,10.013082,-8.25219E-4,0.0064813923,-0.03902545,35.32075,-0.10562307,18.827827,23.1300716,72.54555281,2.6116958
1729838158554,0.40151337,-0.05831755,10.041493,-8.25219E-4,0.0064813923,-0.03902545,35.32075,-0.10562307,18.827827,23.1300716,72.54555281,2.6116958
1729838158555,0.45652482,-0.05275574,10.049506,-8.25219E-4,0.0064813923,-0.03902545,35.32075,-0.10562307,18.827827,23.1300716,72.54555281,2.6116958
1729838158555,0.5053196,-0.049861625,10.039047,-8.25219E-4,0.0064813923,-0.03902545,35.32075,-0.10562307,18.827827,23.1300716,72.54555281,2.6116958
1729838158555,0.5145648,-0.050058797,10.040969,-8.25219E-4,0.0064813923,-0.03902545,35.32075,-0.10562307,18.827827,23.1300716,72.54555281,2.6116958
1729838158556,0.53380543,-0.04985761,10.05136,-8.25219E-4,0.0064813923,-0.03902545,35.32075,-0.10562307,18.827827,23.1300716,72.54555281,2.6116958
1729838158556,0.59573835,-0.039646804,10.044001,-8.25219E-4,0.0064813923,-0.03902545,35.32075,-0.10562307,18.827827,23.1300716,72.54555281,2.6116958
1729838158557,0.60077816,-0.045356534,10.035601,-8.25219E-4,0.0064813923,-0.03902545,35.32075,-0.10562307,18.827827,23.1300716,72.54555281,2.6116958
1729838158557,0.6184491,-0.033772767,10.001842,-8.25219E-4,0.0064813923,-0.03902545,35.32075,-0.10562307,18.827827,23.1300716,72.54555281,2.6116958
1729838158580,0.6184491,-0.033772767,10.001842,-0.00127104,0.0046353354,-0.037787154,35.32075,-0.10562307,18.827827,23.1300716,72.54555281,2.6116958
1729838158639,0.6184491,-0.033772767,10.001842,-0.00127104,0.0046353354,-0.037787154,34.560352,-0.36949846,18.782263,23.1300716,72.54555281,2.6116958
1729838158647,0.6184491,-0.033772767,10.001842,-0.00127104,0.0046353354,-0.037787154,34.560352,-0.36949846,18.782263,23.13007237,72.54557786,1.32251
1729838158651,0.61284506,-0.02247185,9.96299,-0.00127104,0.0046353354,-0.037787154,34.560352,-0.36949846,18.782263,23.13007237,72.54557786,1.32251
1729838158651,0.6370757,9.258166E-4,9.916474,-0.00127104,0.0046353354,-0.037787154,34.560352,-0.36949846,18.782263,23.13007237,72.54557786,1.32251
1729838158651,0.6174573,0.011029789,9.886082,-0.00127104,0.0046353354,-0.037787154,34.560352,-0.36949846,18.782263,23.13007237,72.54557786,1.32251
1729838158652,0.62377644,0.03430739,9.865237,-0.00127104,0.0046353354,-0.037787154,34.560352,-0.36949846,18.782263,23.13007237,72.54557786,1.32251
1729838158788,0.62377644,0.03430739,9.865237,3.8815686E-4,0.007953778,-0.035177726,34.560352,-0.36949846,18.782263,23.13007237,72.54557786,1.32251
1729838158826,0.630746,0.045033157,9.862201,3.8815686E-4,0.007953778,-0.035177726,34.560352,-0.36949846,18.782263,23.13007237,72.54557786,1.32251
1729838158826,0.57039946,0.037940785,9.857977,3.8815686E-4,0.007953778,-0.035177726,34.560352,-0.36949846,18.782263,23.13007237,72.54557786,1.32251
1729838158827,0.63111526,0.036454324,9.868835,3.8815686E-4,0.007953778,-0.035177726,34.560352,-0.36949846,18.782263,23.13007237,72.54557786,1.32251
1729838158827,0.5415024,0.054288097,9.901929,3.8815686E-4,0.007953778,-0.035177726,34.560352,-0.36949846,18.782263,23.13007237,72.54557786,1.32251
1729838158827,0.5195828,0.05850526,9.920387,3.8815686E-4,0.007953778,-0.035177726,34.560352,-0.36949846,18.782263,23.13007237,72.54557786,1.32251
1729838158827,0.5216683,0.0691771,9.938265,3.8815686E-4,0.007953778,-0.035177726,34.560352,-0.36949846,18.782263,23.13007237,72.54557786,1.32251
1729838158828,0.42499167,0.06419513,9.964052,3.8815686E-4,0.007953778,-0.035177726,34.560352,-0.36949846,18.782263,23.13007237,72.54557786,1.32251
1729838158828,0.41536725,0.0743272,9.966856,3.8815686E-4,0.007953778,-0.035177726,34.560352,-0.36949846,18.782263,23.13007237,72.54557786,1.32251
1729838158839,0.41536725,0.0743272,9.966856,3.8815686E-4,0.007953778,-0.035177726,33.670784,-0.77559876,19.05331,23.13007237,72.54557786,1.32251
1729838158994,0.41536725,0.0743272,9.966856,0.0013184524,0.008042901,-0.031196507,33.670784,-0.77559876,19.05331,23.13007237,72.54557786,1.32251
1729838159024,0.39283222,0.069631256,9.970295,0.0013184524,0.008042901,-0.031196507,33.670784,-0.77559876,19.05331,23.13007237,72.54557786,1.32251
1729838159024,0.39442533,0.08561529,9.952109,0.0013184524,0.008042901,-0.031196507,33.670784,-0.77559876,19.05331,23.13007237,72.54557786,1.32251
1729838159024,0.32858115,0.08595984,9.9391165,0.0013184524,0.008042901,-0.031196507,33.670784,-0.77559876,19.05331,23.13007237,72.54557786,1.32251
1729838159025,0.39913616,0.06948572,9.934225,0.0013184524,0.008042901,-0.031196507,33.670784,-0.77559876,19.05331,23.13007237,72.54557786,1.32251
1729838159025,0.36393508,0.07018479,9.918109,0.0013184524,0.008042901,-0.031196507,33.670784,-0.77559876,19.05331,23.13007237,72.54557786,1.32251
1729838159026,0.40026078,0.06547984,9.92376,0.0013184524,0.008042901,-0.031196507,33.670784,-0.77559876,19.05331,23.13007237,72.54557786,1.32251
1729838159026,0.440448,0.0641087,9.897892,0.0013184524,0.008042901,-0.031196507,33.670784,-0.77559876,19.05331,23.13007237,72.54557786,1.32251
1729838159026,0.45632654,0.053919066,9.900887,0.0013184524,0.008042901,-0.031196507,33.670784,-0.77559876,19.05331,23.13007237,72.54557786,1.32251
1729838159026,0.46711513,0.08979529,9.878038,0.0013184524,0.008042901,-0.031196507,33.670784,-0.77559876,19.05331,23.13007237,72.54557786,1.32251
1729838159027,0.4911797,0.12998182,9.871245,0.0013184524,0.008042901,-0.031196507,33.670784,-0.77559876,19.05331,23.13007237,72.54557786,1.32251
1729838159038,0.4911797,0.12998182,9.871245,0.0013184524,0.008042901,-0.031196507,32.67038,-1.269229,19.630148,23.13007237,72.54557786,1.32251
1729838159200,0.4911797,0.12998182,9.871245,9.32589E-4,0.0070451857,-0.026331652,32.67038,-1.269229,19.630148,23.13007237,72.54557786,1.32251
1729838159224,0.45192683,0.15602934,9.832551,9.32589E-4,0.0070451857,-0.026331652,32.67038,-1.269229,19.630148,23.13007237,72.54557786,1.32251
1729838159224,0.41322646,0.15162309,9.836171,9.32589E-4,0.0070451857,-0.026331652,32.67038,-1.269229,19.630148,23.13007237,72.54557786,1.32251
1729838159225,0.44471878,0.17274415,9.827462,9.32589E-4,0.0070451857,-0.026331652,32.67038,-1.269229,19.630148,23.13007237,72.54557786,1.32251
1729838159225,0.38089967,0.17109662,9.836885,9.32589E-4,0.0070451857,-0.026331652,32.67038,-1.269229,19.630148,23.13007237,72.54557786,1.32251
1729838159225,0.35508865,0.16882148,9.837365,9.32589E-4,0.0070451857,-0.026331652,32.67038,-1.269229,19.630148,23.13007237,72.54557786,1.32251
1729838159226,0.38720158,0.16724066,9.85761,9.32589E-4,0.0070451857,-0.026331652,32.67038,-1.269229,19.630148,23.13007237,72.54557786,1.32251
1729838159226,0.29863462,0.136305,9.883257,9.32589E-4,0.0070451857,-0.026331652,32.67038,-1.269229,19.630148,23.13007237,72.54557786,1.32251
1729838159226,0.3288778,0.11921351,9.903177,9.32589E-4,0.0070451857,-0.026331652,32.67038,-1.269229,19.630148,23.13007237,72.54557786,1.32251
1729838159226,0.30389988,0.07048546,9.952015,9.32589E-4,0.0070451857,-0.026331652,32.67038,-1.269229,19.630148,23.13007237,72.54557786,1.32251
1729838159239,0.30389988,0.07048546,9.952015,9.32589E-4,0.0070451857,-0.026331652,31.618805,-1.7541332,20.391619,23.13007237,72.54557786,1.32251
1729838159277,0.23414683,0.0039855503,10.00927,9.32589E-4,0.0070451857,-0.026331652,31.618805,-1.7541332,20.391619,23.13007237,72.54557786,1.32251
1729838159277,0.31557277,-0.03581457,10.055432,9.32589E-4,0.0070451857,-0.026331652,31.618805,-1.7541332,20.391619,23.13007237,72.54557786,1.32251
1729838159406,0.31557277,-0.03581457,10.055432,-7.505474E-4,0.0027039978,-0.022195423,31.618805,-1.7541332,20.391619,23.13007237,72.54557786,1.32251
1729838159424,0.28535953,-0.08895078,10.095473,-7.505474E-4,0.0027039978,-0.022195423,31.618805,-1.7541332,20.391619,23.13007237,72.54557786,1.32251
1729838159424,0.32723084,-0.14808987,10.117217,-7.505474E-4,0.0027039978,-0.022195423,31.618805,-1.7541332,20.391619,23.13007237,72.54557786,1.32251
1729838159424,0.32112667,-0.2107152,10.136288,-7.505474E-4,0.0027039978,-0.022195423,31.618805,-1.7541332,20.391619,23.13007237,72.54557786,1.32251
1729838159425,0.37115863,-0.23844258,10.156689,-7.505474E-4,0.0027039978,-0.022195423,31.618805,-1.7541332,20.391619,23.13007237,72.54557786,1.32251
1729838159425,0.38785416,-0.29352582,10.173607,-7.505474E-4,0.0027039978,-0.022195423,31.618805,-1.7541332,20.391619,23.13007237,72.54557786,1.32251
1729838159425,0.39474997,-0.3716901,10.161538,-7.505474E-4,0.0027039978,-0.022195423,31.618805,-1.7541332,20.391619,23.13007237,72.54557786,1.32251
1729838159426,0.39715594,-0.43194836,10.148055,-7.505474E-4,0.0027039978,-0.022195423,31.618805,-1.7541332,20.391619,23.13007237,72.54557786,1.32251
1729838159437,0.39715594,-0.43194836,10.148055,-7.505474E-4,0.0027039978,-0.022195423,30.582544,-2.1383066,21.180796,23.13007237,72.54557786,1.32251
1729838159614,0.39715594,-0.43194836,10.148055,-0.0046016024,0.0029878658,-0.015465597,30.582544,-2.1383066,21.180796,23.13007237,72.54557786,1.32251
1729838159623,0.43963906,-0.48410314,10.115614,-0.0046016024,0.0029878658,-0.015465597,30.582544,-2.1383066,21.180796,23.13007237,72.54557786,1.32251
1729838159624,0.5013823,-0.533484,10.065732,-0.0046016024,0.0029878658,-0.015465597,30.582544,-2.1383066,21.180796,23.13007237,72.54557786,1.32251
1729838159624,0.4349643,-0.59942937,10.022118,-0.0046016024,0.0029878658,-0.015465597,30.582544,-2.1383066,21.180796,23.13007237,72.54557786,1.32251
1729838159624,0.4691679,-0.64165723,9.977895,-0.0046016024,0.0029878658,-0.015465597,30.582544,-2.1383066,21.180796,23.13007237,72.54557786,1.32251
1729838159625,0.4349156,-0.6486399,9.904829,-0.0046016024,0.0029878658,-0.015465597,30.582544,-2.1383066,21.180796,23.13007237,72.54557786,1.32251
1729838159625,0.40021566,-0.6959808,9.866836,-0.0046016024,0.0029878658,-0.015465597,30.582544,-2.1383066,21.180796,23.13007237,72.54557786,1.32251
1729838159625,0.35690233,-0.7082503,9.832373,-0.0046016024,0.0029878658,-0.015465597,30.582544,-2.1383066,21.180796,23.13007237,72.54557786,1.32251
1729838159626,0.33589077,-0.7354139,9.809109,-0.0046016024,0.0029878658,-0.015465597,30.582544,-2.1383066,21.180796,23.13007237,72.54557786,1.32251
1729838159626,0.31106555,-0.7561877,9.773748,-0.0046016024,0.0029878658,-0.015465597,30.582544,-2.1383066,21.180796,23.13007237,72.54557786,1.32251
1729838159626,0.23473479,-0.766346,9.739359,-0.0046016024,0.0029878658,-0.015465597,30.582544,-2.1383066,21.180796,23.13007237,72.54557786,1.32251
1729838159644,0.23473479,-0.766346,9.739359,-0.0046016024,0.0029878658,-0.015465597,30.582544,-2.1383066,21.180796,23.13006924,72.54561181,12.630834
1729838159650,0.23473479,-0.766346,9.739359,-0.0046016024,0.0029878658,-0.015465597,29.622286,-2.4006453,21.785887,23.13006924,72.54561181,12.630834
1729838159656,0.27548477,-0.7999562,9.7408,-0.0046016024,0.0029878658,-0.015465597,29.622286,-2.4006453,21.785887,23.13006924,72.54561181,12.630834
1729838159822,0.27548477,-0.7999562,9.7408,-0.0028566145,0.0012907361,-0.0073023005,29.622286,-2.4006453,21.785887,23.13006924,72.54561181,12.630834
1729838159824,0.26082653,-0.7952592,9.7436285,-0.0028566145,0.0012907361,-0.0073023005,29.622286,-2.4006453,21.785887,23.13006924,72.54561181,12.630834
1729838159824,0.26728538,-0.83696514,9.76922,-0.0028566145,0.0012907361,-0.0073023005,29.622286,-2.4006453,21.785887,23.13006924,72.54561181,12.630834
1729838159824,0.28310052,-0.82881445,9.790173,-0.0028566145,0.0012907361,-0.0073023005,29.622286,-2.4006453,21.785887,23.13006924,72.54561181,12.630834
1729838159825,0.28677952,-0.8181064,9.769009,-0.0028566145,0.0012907361,-0.0073023005,29.622286,-2.4006453,21.785887,23.13006924,72.54561181,12.630834
1729838159825,0.29546553,-0.8160007,9.735926,-0.0028566145,0.0012907361,-0.0073023005,29.622286,-2.4006453,21.785887,23.13006924,72.54561181,12.630834
1729838159825,0.30504644,-0.78009874,9.676917,-0.0028566145,0.0012907361,-0.0073023005,29.622286,-2.4006453,21.785887,23.13006924,72.54561181,12.630834
1729838159826,0.2945257,-0.78511596,9.623609,-0.0028566145,0.0012907361,-0.0073023005,29.622286,-2.4006453,21.785887,23.13006924,72.54561181,12.630834
1729838159826,0.23729555,-0.7693889,9.616375,-0.0028566145,0.0012907361,-0.0073023005,29.622286,-2.4006453,21.785887,23.13006924,72.54561181,12.630834
1729838159837,0.23729555,-0.7693889,9.616375,-0.0028566145,0.0012907361,-0.0073023005,28.816578,-2.5992663,22.13871,23.13006924,72.54561181,12.630834
1729838159996,0.26281753,-0.7478342,9.645045,-0.0028566145,0.0012907361,-0.0073023005,28.816578,-2.5992663,22.13871,23.13006924,72.54561181,12.630834
1729838159996,0.28036374,-0.7539205,9.657094,-0.0028566145,0.0012907361,-0.0073023005,28.816578,-2.5992663,22.13871,23.13006924,72.54561181,12.630834
1729838159996,0.33818936,-0.7470647,9.654649,-0.0028566145,0.0012907361,-0.0073023005,28.816578,-2.5992663,22.13871,23.13006924,72.54561181,12.630834
1729838159997,0.3158955,-0.77089214,9.7071295,-0.0028566145,0.0012907361,-0.0073023005,28.816578,-2.5992663,22.13871,23.13006924,72.54561181,12.630834
1729838159997,0.34938642,-0.7700936,9.788836,-0.0028566145,0.0012907361,-0.0073023005,28.816578,-2.5992663,22.13871,23.13006924,72.54561181,12.630834
1729838159997,0.37869164,-0.82437015,9.87394,-0.0028566145,0.0012907361,-0.0073023005,28.816578,-2.5992663,22.13871,23.13006924,72.54561181,12.630834
1729838159998,0.3944788,-0.8430256,9.922523,-0.0028566145,0.0012907361,-0.0073023005,28.816578,-2.5992663,22.13871,23.13006924,72.54561181,12.630834
1729838159998,0.36894298,-0.8770926,9.985676,-0.0028566145,0.0012907361,-0.0073023005,28.816578,-2.5992663,22.13871,23.13006924,72.54561181,12.630834
1729838160026,0.36894298,-0.8770926,9.985676,-0.0019798593,7.88243E-4,-0.0010160091,28.816578,-2.5992663,22.13871,23.13006924,72.54561181,12.630834
1729838160039,0.36894298,-0.8770926,9.985676,-0.0019798593,7.88243E-4,-0.0010160091,28.213263,-2.784413,22.338469,23.13006924,72.54561181,12.630834
1729838160155,0.35641065,-0.94322956,10.026867,-0.0019798593,7.88243E-4,-0.0010160091,28.213263,-2.784413,22.338469,23.13006924,72.54561181,12.630834
1729838160156,0.312646,-0.95366645,10.06616,-0.0019798593,7.88243E-4,-0.0010160091,28.213263,-2.784413,22.338469,23.13006924,72.54561181,12.630834
1729838160156,0.32357645,-0.99994224,10.075701,-0.0019798593,7.88243E-4,-0.0010160091,28.213263,-2.784413,22.338469,23.13006924,72.54561181,12.630834
1729838160156,0.30767474,-1.0516788,10.060003,-0.0019798593,7.88243E-4,-0.0010160091,28.213263,-2.784413,22.338469,23.13006924,72.54561181,12.630834
1729838160157,0.2932784,-1.0980929,10.037635,-0.0019798593,7.88243E-4,-0.0010160091,28.213263,-2.784413,22.338469,23.13006924,72.54561181,12.630834
1729838160157,0.3224393,-1.118953,10.043549,-0.0019798593,7.88243E-4,-0.0010160091,28.213263,-2.784413,22.338469,23.13006924,72.54561181,12.630834
1729838160157,0.29336524,-1.1133878,10.016455,-0.0019798593,7.88243E-4,-0.0010160091,28.213263,-2.784413,22.338469,23.13006924,72.54561181,12.630834
1729838160234,0.29336524,-1.1133878,10.016455,-0.0028667036,0.0013330888,0.0046849754,28.213263,-2.784413,22.338469,23.13006924,72.54561181,12.630834
1729838160237,0.29336524,-1.1133878,10.016455,-0.0028667036,0.0013330888,0.0046849754,27.86186,-2.8912804,22.303276,23.13006924,72.54561181,12.630834
1729838160284,0.36486173,-1.1313086,9.960921,-0.0028667036,0.0013330888,0.0046849754,27.86186,-2.8912804,22.303276,23.13006924,72.54561181,12.630834
1729838160285,0.32000506,-1.1594039,9.910752,-0.0028667036,0.0013330888,0.0046849754,27.86186,-2.8912804,22.303276,23.13006924,72.54561181,12.630834
1729838160286,0.36415964,-1.134263,9.876359,-0.0028667036,0.0013330888,0.0046849754,27.86186,-2.8912804,22.303276,23.13006924,72.54561181,12.630834
1729838160286,0.37148726,-1.1524354,9.823601,-0.0028667036,0.0013330888,0.0046849754,27.86186,-2.8912804,22.303276,23.13006924,72.54561181,12.630834
1729838160287,0.37986183,-1.1589575,9.761653,-0.0028667036,0.0013330888,0.0046849754,27.86186,-2.8912804,22.303276,23.13006924,72.54561181,12.630834
1729838160287,0.37280276,-1.1364183,9.709941,-0.0028667036,0.0013330888,0.0046849754,27.86186,-2.8912804,22.303276,23.13006924,72.54561181,12.630834
1729838160425,0.31738478,-1.1356153,9.655052,-0.0028667036,0.0013330888,0.0046849754,27.86186,-2.8912804,22.303276,23.13006924,72.54561181,12.630834
1729838160426,0.3317942,-1.1388015,9.623344,-0.0028667036,0.0013330888,0.0046849754,27.86186,-2.8912804,22.303276,23.13006924,72.54561181,12.630834
1729838160426,0.2769209,-1.1409914,9.599534,-0.0028667036,0.0013330888,0.0046849754,27.86186,-2.8912804,22.303276,23.13006924,72.54561181,12.630834
1729838160426,0.3118658,-1.1456147,9.616617,-0.0028667036,0.0013330888,0.0046849754,27.86186,-2.8912804,22.303276,23.13006924,72.54561181,12.630834
1729838160426,0.31577384,-1.1573294,9.650384,-0.0028667036,0.0013330888,0.0046849754,27.86186,-2.8912804,22.303276,23.13006924,72.54561181,12.630834
1729838160427,0.27080452,-1.1616762,9.684935,-0.0028667036,0.0013330888,0.0046849754,27.86186,-2.8912804,22.303276,23.13006924,72.54561181,12.630834
1729838160427,0.28041232,-1.1804677,9.719395,-0.0028667036,0.0013330888,0.0046849754,27.86186,-2.8912804,22.303276,23.13006924,72.54561181,12.630834
1729838160439,0.28041232,-1.1804677,9.719395,-0.0028667036,0.0013330888,0.0046849754,27.749489,-2.9242742,21.99387,23.13006924,72.54561181,12.630834
1729838160440,0.28041232,-1.1804677,9.719395,-0.0047062784,0.0017078791,0.008360009,27.749489,-2.9242742,21.99387,23.13006924,72.54561181,12.630834
1729838160626,0.26871672,-1.2031579,9.753662,-0.0047062784,0.0017078791,0.008360009,27.749489,-2.9242742,21.99387,23.13006924,72.54561181,12.630834
1729838160626,0.2630691,-1.2107817,9.775812,-0.0047062784,0.0017078791,0.008360009,27.749489,-2.9242742,21.99387,23.13006924,72.54561181,12.630834
1729838160626,0.26824194,-1.2181967,9.777979,-0.0047062784,0.0017078791,0.008360009,27.749489,-2.9242742,21.99387,23.13006924,72.54561181,12.630834
1729838160627,0.26113397,-1.2224538,9.786412,-0.0047062784,0.0017078791,0.008360009,27.749489,-2.9242742,21.99387,23.13006924,72.54561181,12.630834
1729838160627,0.30808967,-1.2168864,9.783348,-0.0047062784,0.0017078791,0.008360009,27.749489,-2.9242742,21.99387,23.13006924,72.54561181,12.630834
1729838160627,0.2902604,-1.1991524,9.775752,-0.0047062784,0.0017078791,0.008360009,27.749489,-2.9242742,21.99387,23.13006924,72.54561181,12.630834
1729838160628,0.2844915,-1.1970488,9.763574,-0.0047062784,0.0017078791,0.008360009,27.749489,-2.9242742,21.99387,23.13006924,72.54561181,12.630834
1729838160628,0.32833105,-1.1902214,9.7662735,-0.0047062784,0.0017078791,0.008360009,27.749489,-2.9242742,21.99387,23.13006924,72.54561181,12.630834
1729838160628,0.3503618,-1.2061753,9.768074,-0.0047062784,0.0017078791,0.008360009,27.749489,-2.9242742,21.99387,23.13006924,72.54561181,12.630834
1729838160639,0.3503618,-1.2061753,9.768074,-0.0047062784,0.0017078791,0.008360009,27.854591,-2.9356694,21.495096,23.13006924,72.54561181,12.630834
1729838160645,0.3503618,-1.2061753,9.768074,-0.0038261092,5.294406E-5,0.011666555,27.854591,-2.9356694,21.495096,23.13006924,72.54561181,12.630834
1729838160649,0.3503618,-1.2061753,9.768074,-0.0038261092,5.294406E-5,0.011666555,27.854591,-2.9356694,21.495096,23.13006504,72.54564968,13.993747
1729838160652,0.31151578,-1.2188187,9.791888,-0.0038261092,5.294406E-5,0.011666555,27.854591,-2.9356694,21.495096,23.13006504,72.54564968,13.993747
1729838160794,0.3841678,-1.2069194,9.817879,-0.0038261092,5.294406E-5,0.011666555,27.854591,-2.9356694,21.495096,23.13006504,72.54564968,13.993747
1729838160795,0.37552968,-1.2143891,9.822759,-0.0038261092,5.294406E-5,0.011666555,27.854591,-2.9356694,21.495096,23.13006504,72.54564968,13.993747
1729838160795,0.30066302,-1.2368753,9.843054,-0.0038261092,5.294406E-5,0.011666555,27.854591,-2.9356694,21.495096,23.13006504,72.54564968,13.993747
1729838160795,0.33947363,-1.2486429,9.883098,-0.0038261092,5.294406E-5,0.011666555,27.854591,-2.9356694,21.495096,23.13006504,72.54564968,13.993747
1729838160796,0.3268531,-1.2484858,9.915253,-0.0038261092,5.294406E-5,0.011666555,27.854591,-2.9356694,21.495096,23.13006504,72.54564968,13.993747
1729838160796,0.32118338,-1.2485993,9.922073,-0.0038261092,5.294406E-5,0.011666555,27.854591,-2.9356694,21.495096,23.13006504,72.54564968,13.993747
1729838160796,0.32179222,-1.2512026,9.91437,-0.0038261092,5.294406E-5,0.011666555,27.854591,-2.9356694,21.495096,23.13006504,72.54564968,13.993747
1729838160838,0.32179222,-1.2512026,9.91437,-0.0038261092,5.294406E-5,0.011666555,28.096174,-2.9822855,21.021076,23.13006504,72.54564968,13.993747
1729838160852,0.32179222,-1.2512026,9.91437,-0.0042520734,1.645282E-4,0.013456581,28.096174,-2.9822855,21.021076,23.13006504,72.54564968,13.993747
1729838160955,0.3151008,-1.2712314,9.894328,-0.0042520734,1.645282E-4,0.013456581,28.096174,-2.9822855,21.021076,23.13006504,72.54564968,13.993747
1729838160955,0.36789325,-1.2943133,9.881166,-0.0042520734,1.645282E-4,0.013456581,28.096174,-2.9822855,21.021076,23.13006504,72.54564968,13.993747
1729838160955,0.36394572,-1.3599174,9.871834,-0.0042520734,1.645282E-4,0.013456581,28.096174,-2.9822855,21.021076,23.13006504,72.54564968,13.993747
1729838160956,0.41462624,-1.4158702,9.857069,-0.0042520734,1.645282E-4,0.013456581,28.096174,-2.9822855,21.021076,23.13006504,72.54564968,13.993747
1729838160956,0.42203006,-1.4776216,9.839873,-0.0042520734,1.645282E-4,0.013456581,28.096174,-2.9822855,21.021076,23.13006504,72.54564968,13.993747
1729838160956,0.39182147,-1.5276209,9.80817,-0.0042520734,1.645282E-4,0.013456581,28.096174,-2.9822855,21.021076,23.13006504,72.54564968,13.993747
1729838160956,0.39421496,-1.5861647,9.769767,-0.0042520734,1.645282E-4,0.013456581,28.096174,-2.9822855,21.021076,23.13006504,72.54564968,13.993747
1729838161040,0.39421496,-1.5861647,9.769767,-0.0042520734,1.645282E-4,0.013456581,28.44694,-3.0308285,20.641861,23.13006504,72.54564968,13.993747
1729838161058,0.39421496,-1.5861647,9.769767,-0.00926596,0.0033386627,0.015713269,28.44694,-3.0308285,20.641861,23.13006504,72.54564968,13.993747
1729838161115,0.3902673,-1.6663796,9.734139,-0.00926596,0.0033386627,0.015713269,28.44694,-3.0308285,20.641861,23.13006504,72.54564968,13.993747
1729838161116,0.34068847,-1.7382085,9.707313,-0.00926596,0.0033386627,0.015713269,28.44694,-3.0308285,20.641861,23.13006504,72.54564968,13.993747
1729838161116,0.348164,-1.8429298,9.672451,-0.00926596,0.0033386627,0.015713269,28.44694,-3.0308285,20.641861,23.13006504,72.54564968,13.993747
1729838161116,0.34361595,-2.0042343,9.634991,-0.00926596,0.0033386627,0.015713269,28.44694,-3.0308285,20.641861,23.13006504,72.54564968,13.993747
1729838161116,0.3028888,-2.1361494,9.616268,-0.00926596,0.0033386627,0.015713269,28.44694,-3.0308285,20.641861,23.13006504,72.54564968,13.993747
1729838161117,0.31481355,-2.266208,9.577601,-0.00926596,0.0033386627,0.015713269,28.44694,-3.0308285,20.641861,23.13006504,72.54564968,13.993747
1729838161117,0.3265069,-2.3837743,9.547865,-0.00926596,0.0033386627,0.015713269,28.44694,-3.0308285,20.641861,23.13006504,72.54564968,13.993747
1729838161117,0.29829428,-2.482254,9.529579,-0.00926596,0.0033386627,0.015713269,28.44694,-3.0308285,20.641861,23.13006504,72.54564968,13.993747
1729838161240,0.29829428,-2.482254,9.529579,-0.00926596,0.0033386627,0.015713269,28.8663,-3.073413,20.405989,23.13006504,72.54564968,13.993747
1729838161265,0.29829428,-2.482254,9.529579,-0.0089093875,0.0037399437,0.015472222,28.8663,-3.073413,20.405989,23.13006504,72.54564968,13.993747
1729838161274,0.27763844,-2.568934,9.513036,-0.0089093875,0.0037399437,0.015472222,28.8663,-3.073413,20.405989,23.13006504,72.54564968,13.993747
1729838161274,0.29772395,-2.6275103,9.517987,-0.0089093875,0.0037399437,0.015472222,28.8663,-3.073413,20.405989,23.13006504,72.54564968,13.993747
1729838161274,0.26150918,-2.6854982,9.512137,-0.0089093875,0.0037399437,0.015472222,28.8663,-3.073413,20.405989,23.13006504,72.54564968,13.993747
1729838161275,0.25538883,-2.7284188,9.521695,-0.0089093875,0.0037399437,0.015472222,28.8663,-3.073413,20.405989,23.13006504,72.54564968,13.993747
1729838161275,0.20431106,-2.781898,9.528384,-0.0089093875,0.0037399437,0.015472222,28.8663,-3.073413,20.405989,23.13006504,72.54564968,13.993747
1729838161275,0.16380778,-2.8319793,9.554552,-0.0089093875,0.0037399437,0.015472222,28.8663,-3.073413,20.405989,23.13006504,72.54564968,13.993747
1729838161275,0.15688871,-2.8576875,9.551918,-0.0089093875,0.0037399437,0.015472222,28.8663,-3.073413,20.405989,23.13006504,72.54564968,13.993747
1729838161290,0.19514212,-2.8869877,9.544307,-0.0089093875,0.0037399437,0.015472222,28.8663,-3.073413,20.405989,23.13006504,72.54564968,13.993747
1729838161434,0.16664211,-2.895353,9.5442,-0.0089093875,0.0037399437,0.015472222,28.8663,-3.073413,20.405989,23.13006504,72.54564968,13.993747
1729838161435,0.21490896,-2.8419857,9.557514,-0.0089093875,0.0037399437,0.015472222,28.8663,-3.073413,20.405989,23.13006504,72.54564968,13.993747
1729838161435,0.24407077,-2.7400694,9.560628,-0.0089093875,0.0037399437,0.015472222,28.8663,-3.073413,20.405989,23.13006504,72.54564968,13.993747
1729838161435,0.27063054,-2.6598523,9.586927,-0.0089093875,0.0037399437,0.015472222,28.8663,-3.073413,20.405989,23.13006504,72.54564968,13.993747
1729838161436,0.29594615,-2.5320296,9.625674,-0.0089093875,0.0037399437,0.015472222,28.8663,-3.073413,20.405989,23.13006504,72.54564968,13.993747
1729838161436,0.33342695,-2.3800008,9.648058,-0.0089093875,0.0037399437,0.015472222,28.8663,-3.073413,20.405989,23.13006504,72.54564968,13.993747
1729838161436,0.36317232,-2.2383976,9.664887,-0.0089093875,0.0037399437,0.015472222,28.8663,-3.073413,20.405989,23.13006504,72.54564968,13.993747
1729838161440,0.36317232,-2.2383976,9.664887,-0.0089093875,0.0037399437,0.015472222,29.261791,-3.0437305,20.299791,23.13006504,72.54564968,13.993747
1729838161473,0.36317232,-2.2383976,9.664887,-0.005111656,0.0017396823,0.014118742,29.261791,-3.0437305,20.299791,23.13006504,72.54564968,13.993747
1729838161594,0.3782348,-2.1096814,9.691871,-0.005111656,0.0017396823,0.014118742,29.261791,-3.0437305,20.299791,23.13006504,72.54564968,13.993747
1729838161595,0.37664568,-1.9913943,9.707715,-0.005111656,0.0017396823,0.014118742,29.261791,-3.0437305,20.299791,23.13006504,72.54564968,13.993747
1729838161595,0.37812617,-1.8777417,9.712973,-0.005111656,0.0017396823,0.014118742,29.261791,-3.0437305,20.299791,23.13006504,72.54564968,13.993747
1729838161595,0.32678807,-1.7669592,9.7280655,-0.005111656,0.0017396823,0.014118742,29.261791,-3.0437305,20.299791,23.13006504,72.54564968,13.993747
1729838161596,0.3414704,-1.7119524,9.757249,-0.005111656,0.0017396823,0.014118742,29.261791,-3.0437305,20.299791,23.13006504,72.54564968,13.993747
1729838161596,0.3187596,-1.644258,9.774015,-0.005111656,0.0017396823,0.014118742,29.261791,-3.0437305,20.299791,23.13006504,72.54564968,13.993747
1729838161596,0.28300372,-1.5936917,9.78013,-0.005111656,0.0017396823,0.014118742,29.261791,-3.0437305,20.299791,23.13006504,72.54564968,13.993747
1729838161639,0.28300372,-1.5936917,9.78013,-0.005111656,0.0017396823,0.014118742,29.581932,-2.8549845,20.113585,23.13006504,72.54564968,13.993747
1729838161649,0.28300372,-1.5936917,9.78013,-0.005111656,0.0017396823,0.014118742,29.581932,-2.8549845,20.113585,23.13006296,72.5456844,12.829016
1729838161650,0.30321258,-1.5381639,9.778203,-0.005111656,0.0017396823,0.014118742,29.581932,-2.8549845,20.113585,23.13006296,72.5456844,12.829016
1729838161650,0.2597984,-1.502954,9.776302,-0.005111656,0.0017396823,0.014118742,29.581932,-2.8549845,20.113585,23.13006296,72.5456844,12.829016
1729838161651,0.31958354,-1.4677273,9.786267,-0.005111656,0.0017396823,0.014118742,29.581932,-2.8549845,20.113585,23.13006296,72.5456844,12.829016
1729838161680,0.31958354,-1.4677273,9.786267,-0.0033257443,0.0011474,0.01682332,29.581932,-2.8549845,20.113585,23.13006296,72.5456844,12.829016
1729838161755,0.27672365,-1.4360763,9.785147,-0.0033257443,0.0011474,0.01682332,29.581932,-2.8549845,20.113585,23.13006296,72.5456844,12.829016
1729838161756,0.27210677,-1.423916,9.803632,-0.0033257443,0.0011474,0.01682332,29.581932,-2.8549845,20.113585,23.13006296,72.5456844,12.829016
1729838161756,0.28623977,-1.3985149,9.83182,-0.0033257443,0.0011474,0.01682332,29.581932,-2.8549845,20.113585,23.13006296,72.5456844,12.829016
1729838161756,0.28606063,-1.3887223,9.827331,-0.0033257443,0.0011474,0.01682332,29.581932,-2.8549845,20.113585,23.13006296,72.5456844,12.829016
1729838161756,0.3027867,-1.3668902,9.840489,-0.0033257443,0.0011474,0.01682332,29.581932,-2.8549845,20.113585,23.13006296,72.5456844,12.829016
1729838161840,0.3027867,-1.3668902,9.840489,-0.0033257443,0.0011474,0.01682332,29.755547,-2.5352378,19.743368,23.13006296,72.5456844,12.829016
1729838161886,0.3027867,-1.3668902,9.840489,-0.0010112608,0.0014371551,0.017032215,29.755547,-2.5352378,19.743368,23.13006296,72.5456844,12.829016
1729838161914,0.3252603,-1.3555262,9.854606,-0.0010112608,0.0014371551,0.017032215,29.755547,-2.5352378,19.743368,23.13006296,72.5456844,12.829016
1729838161914,0.34898198,-1.3377013,9.845799,-0.0010112608,0.0014371551,0.017032215,29.755547,-2.5352378,19.743368,23.13006296,72.5456844,12.829016
1729838161914,0.36975393,-1.3305001,9.831098,-0.0010112608,0.0014371551,0.017032215,29.755547,-2.5352378,19.743368,23.13006296,72.5456844,12.829016
1729838161915,0.37943232,-1.3176804,9.852835,-0.0010112608,0.0014371551,0.017032215,29.755547,-2.5352378,19.743368,23.13006296,72.5456844,12.829016
1729838161915,0.37245914,-1.3020407,9.840315,-0.0010112608,0.0014371551,0.017032215,29.755547,-2.5352378,19.743368,23.13006296,72.5456844,12.829016
1729838161915,0.37812686,-1.2946736,9.836041,-0.0010112608,0.0014371551,0.017032215,29.755547,-2.5352378,19.743368,23.13006296,72.5456844,12.829016
1729838161915,0.3758415,-1.2945225,9.839203,-0.0010112608,0.0014371551,0.017032215,29.755547,-2.5352378,19.743368,23.13006296,72.5456844,12.829016
1729838162039,0.3758415,-1.2945225,9.839203,-0.0010112608,0.0014371551,0.017032215,29.759438,-2.0844405,19.023445,23.13006296,72.5456844,12.829016
1729838162074,0.329746,-1.2933251,9.841732,-0.0010112608,0.0014371551,0.017032215,29.759438,-2.0844405,19.023445,23.13006296,72.5456844,12.829016
1729838162075,0.35436514,-1.2799244,9.817913,-0.0010112608,0.0014371551,0.017032215,29.759438,-2.0844405,19.023445,23.13006296,72.5456844,12.829016
1729838162075,0.30191684,-1.2741091,9.81477,-0.0010112608,0.0014371551,0.017032215,29.759438,-2.0844405,19.023445,23.13006296,72.5456844,12.829016
1729838162075,0.26103497,-1.2774729,9.7961035,-0.0010112608,0.0014371551,0.017032215,29.759438,-2.0844405,19.023445,23.13006296,72.5456844,12.829016
1729838162076,0.25130057,-1.2704729,9.773155,-0.0010112608,0.0014371551,0.017032215,29.759438,-2.0844405,19.023445,23.13006296,72.5456844,12.829016
1729838162076,0.22592582,-1.2499177,9.750729,-0.0010112608,0.0014371551,0.017032215,29.759438,-2.0844405,19.023445,23.13006296,72.5456844,12.829016
1729838162076,0.19378154,-1.2420878,9.726088,-0.0010112608,0.0014371551,0.017032215,29.759438,-2.0844405,19.023445,23.13006296,72.5456844,12.829016
1729838162092,0.19378154,-1.2420878,9.726088,-0.0012060708,7.52662E-4,0.016710639,29.759438,-2.0844405,19.023445,23.13006296,72.5456844,12.829016
1729838162236,0.20706911,-1.2485058,9.718338,-0.0012060708,7.52662E-4,0.016710639,29.759438,-2.0844405,19.023445,23.13006296,72.5456844,12.829016
1729838162236,0.24258454,-1.2426333,9.723385,-0.0012060708,7.52662E-4,0.016710639,29.759438,-2.0844405,19.023445,23.13006296,72.5456844,12.829016
1729838162236,0.24790615,-1.2388924,9.736754,-0.0012060708,7.52662E-4,0.016710639,29.759438,-2.0844405,19.023445,23.13006296,72.5456844,12.829016
1729838162237,0.32526416,-1.2530084,9.766473,-0.0012060708,7.52662E-4,0.016710639,29.759438,-2.0844405,19.023445,23.13006296,72.5456844,12.829016
1729838162237,0.36142772,-1.2572423,9.7919235,-0.0012060708,7.52662E-4,0.016710639,29.759438,-2.0844405,19.023445,23.13006296,72.5456844,12.829016
1729838162237,0.36989996,-1.2558439,9.811565,-0.0012060708,7.52662E-4,0.016710639,29.759438,-2.0844405,19.023445,23.13006296,72.5456844,12.829016
1729838162238,0.4062291,-1.2464699,9.829193,-0.0012060708,7.52662E-4,0.016710639,29.759438,-2.0844405,19.023445,23.13006296,72.5456844,12.829016
1729838162238,0.42524254,-1.2626595,9.825469,-0.0012060708,7.52662E-4,0.016710639,29.759438,-2.0844405,19.023445,23.13006296,72.5456844,12.829016
1729838162239,0.42524254,-1.2626595,9.825469,-0.0012060708,7.52662E-4,0.016710639,29.5938,-1.5550524,17.892506,23.13006296,72.5456844,12.829016
1729838162299,0.3973825,-1.2616134,9.847136,-0.0012060708,7.52662E-4,0.016710639,29.5938,-1.5550524,17.892506,23.13006296,72.5456844,12.829016
1729838162299,0.42007953,-1.2549139,9.839823,-0.0012060708,7.52662E-4,0.016710639,29.5938,-1.5550524,17.892506,23.13006296,72.5456844,12.829016
1729838162299,0.40330195,-1.2592454,9.847013,-0.0012060708,7.52662E-4,0.016710639,29.5938,-1.5550524,17.892506,23.13006296,72.5456844,12.829016
1729838162300,0.40330195,-1.2592454,9.847013,7.1502134E-4,0.0030455885,0.016178489,29.5938,-1.5550524,17.892506,23.13006296,72.5456844,12.829016
1729838162395,0.6191123,-1.5332191,9.998011,7.1502134E-4,0.0030455885,0.016178489,29.5938,-1.5550524,17.892506,23.13006296,72.5456844,12.829016
1729838162395,-0.17051303,-2.2442427,10.157692,7.1502134E-4,0.0030455885,0.016178489,29.5938,-1.5550524,17.892506,23.13006296,72.5456844,12.829016
1729838162395,0.9118851,-2.5077374,10.363682,7.1502134E-4,0.0030455885,0.016178489,29.5938,-1.5550524,17.892506,23.13006296,72.5456844,12.829016
1729838162396,0.19758368,-2.0695999,10.572023,7.1502134E-4,0.0030455885,0.016178489,29.5938,-1.5550524,17.892506,23.13006296,72.5456844,12.829016
1729838162439,0.19758368,-2.0695999,10.572023,7.1502134E-4,0.0030455885,0.016178489,29.315039,-1.037792,16.372755,23.13006296,72.5456844,12.829016
1729838162505,0.19758368,-2.0695999,10.572023,0.021280332,0.0024975573,0.017035585,29.315039,-1.037792,16.372755,23.13006296,72.5456844,12.829016
1729838162555,0.6177282,-1.9182923,10.504917,0.021280332,0.0024975573,0.017035585,29.315039,-1.037792,16.372755,23.13006296,72.5456844,12.829016
1729838162555,-0.13824043,-1.8967875,10.438431,0.021280332,0.0024975573,0.017035585,29.315039,-1.037792,16.372755,23.13006296,72.5456844,12.829016
1729838162556,-0.031748846,-1.4795039,10.15948,0.021280332,0.0024975573,0.017035585,29.315039,-1.037792,16.372755,23.13006296,72.5456844,12.829016
1729838162556,0.13958603,-0.78101075,9.823856,0.021280332,0.0024975573,0.017035585,29.315039,-1.037792,16.372755,23.13006296,72.5456844,12.829016
1729838162556,0.12829894,-0.6169123,9.423632,0.021280332,0.0024975573,0.017035585,29.315039,-1.037792,16.372755,23.13006296,72.5456844,12.829016
1729838162557,-0.2530539,-1.0364614,9.4902525,0.021280332,0.0024975573,0.017035585,29.315039,-1.037792,16.372755,23.13006296,72.5456844,12.829016
1729838162557,-0.069043264,-1.1886907,9.337288,0.021280332,0.0024975573,0.017035585,29.315039,-1.037792,16.372755,23.13006296,72.5456844,12.829016
1729838162557,0.16741753,-0.7505536,9.04335,0.021280332,0.0024975573,0.017035585,29.315039,-1.037792,16.372755,23.13006296,72.5456844,12.829016
1729838162640,0.16741753,-0.7505536,9.04335,0.021280332,0.0024975573,0.017035585,28.990782,-0.67273355,14.703205,23.13006296,72.5456844,12.829016
1729838162647,0.16741753,-0.7505536,9.04335,0.021280332,0.0024975573,0.017035585,28.990782,-0.67273355,14.703205,23.13006228,72.54571531,11.411975
1729838162657,0.29377455,-0.58728236,8.985508,0.021280332,0.0024975573,0.017035585,28.990782,-0.67273355,14.703205,23.13006228,72.54571531,11.411975
1729838162657,0.048020557,-0.8329367,8.99092,0.021280332,0.0024975573,0.017035585,28.990782,-0.67273355,14.703205,23.13006228,72.54571531,11.411975
1729838162657,0.34218526,-0.9544452,8.921551,0.021280332,0.0024975573,0.017035585,28.990782,-0.67273355,14.703205,23.13006228,72.54571531,11.411975
1729838162657,0.45081708,-0.828282,8.944659,0.021280332,0.0024975573,0.017035585,28.990782,-0.67273355,14.703205,23.13006228,72.54571531,11.411975
1729838162658,0.45134163,-0.7691062,9.021172,0.021280332,0.0024975573,0.017035585,28.990782,-0.67273355,14.703205,23.13006228,72.54571531,11.411975
1729838162712,0.45134163,-0.7691062,9.021172,-0.0010573305,-0.0031026746,0.014453135,28.990782,-0.67273355,14.703205,23.13006228,72.54571531,11.411975
1729838162839,0.45134163,-0.7691062,9.021172,-0.0010573305,-0.0031026746,0.014453135,28.678875,-0.49318686,13.105064,23.13006228,72.54571531,11.411975
1729838162857,0.2818709,-0.9131914,9.071495,-0.0010573305,-0.0031026746,0.014453135,28.678875,-0.49318686,13.105064,23.13006228,72.54571531,11.411975
1729838162857,0.47722167,-1.0514306,9.1961,-0.0010573305,-0.0031026746,0.014453135,28.678875,-0.49318686,13.105064,23.13006228,72.54571531,11.411975
1729838162858,0.43035164,-0.98973876,9.354767,-0.0010573305,-0.0031026746,0.014453135,28.678875,-0.49318686,13.105064,23.13006228,72.54571531,11.411975
1729838162858,0.4658367,-0.97819185,9.530395,-0.0010573305,-0.0031026746,0.014453135,28.678875,-0.49318686,13.105064,23.13006228,72.54571531,11.411975
1729838162858,0.5315528,-1.1206594,9.660847,-0.0010573305,-0.0031026746,0.014453135,28.678875,-0.49318686,13.105064,23.13006228,72.54571531,11.411975
1729838162858,0.50061613,-1.2145336,9.848,-0.0010573305,-0.0031026746,0.014453135,28.678875,-0.49318686,13.105064,23.13006228,72.54571531,11.411975
1729838162859,0.5494461,-1.234598,10.059458,-0.0010573305,-0.0031026746,0.014453135,28.678875,-0.49318686,13.105064,23.13006228,72.54571531,11.411975
1729838162859,0.47377425,-1.3274592,10.239751,-0.0010573305,-0.0031026746,0.014453135,28.678875,-0.49318686,13.105064,23.13006228,72.54571531,11.411975
1729838162859,0.39206028,-1.4119177,10.405641,-0.0010573305,-0.0031026746,0.014453135,28.678875,-0.49318686,13.105064,23.13006228,72.54571531,11.411975
1729838162920,0.39206028,-1.4119177,10.405641,-0.0070461417,-4.3574302E-4,0.010951644,28.678875,-0.49318686,13.105064,23.13006228,72.54571531,11.411975
1729838163035,0.38064724,-1.4389261,10.51885,-0.0070461417,-4.3574302E-4,0.010951644,28.678875,-0.49318686,13.105064,23.13006228,72.54571531,11.411975
1729838163035,0.2649166,-1.4504831,10.570175,-0.0070461417,-4.3574302E-4,0.010951644,28.678875,-0.49318686,13.105064,23.13006228,72.54571531,11.411975
1729838163035,0.27378774,-1.4391503,10.601785,-0.0070461417,-4.3574302E-4,0.010951644,28.678875,-0.49318686,13.105064,23.13006228,72.54571531,11.411975
1729838163036,0.24044594,-1.4109416,10.57443,-0.0070461417,-4.3574302E-4,0.010951644,28.678875,-0.49318686,13.105064,23.13006228,72.54571531,11.411975
1729838163036,0.2341115,-1.34985,10.490931,-0.0070461417,-4.3574302E-4,0.010951644,28.678875,-0.49318686,13.105064,23.13006228,72.54571531,11.411975
1729838163036,0.25500607,-1.3174874,10.390871,-0.0070461417,-4.3574302E-4,0.010951644,28.678875,-0.49318686,13.105064,23.13006228,72.54571531,11.411975
1729838163036,0.2907447,-1.2990149,10.27218,-0.0070461417,-4.3574302E-4,0.010951644,28.678875,-0.49318686,13.105064,23.13006228,72.54571531,11.411975
1729838163037,0.3273515,-1.2342271,10.160118,-0.0070461417,-4.3574302E-4,0.010951644,28.678875,-0.49318686,13.105064,23.13006228,72.54571531,11.411975
1729838163038,0.3273515,-1.2342271,10.160118,-0.0070461417,-4.3574302E-4,0.010951644,28.45185,-0.51079947,11.770302,23.13006228,72.54571531,11.411975
1729838163126,0.3273515,-1.2342271,10.160118,0.0035260576,-4.4022413E-4,0.010349564,28.45185,-0.51079947,11.770302,23.13006228,72.54571531,11.411975
1729838163195,0.3697975,-1.1998643,10.046181,0.0035260576,-4.4022413E-4,0.010349564,28.45185,-0.51079947,11.770302,23.13006228,72.54571531,11.411975
1729838163196,0.39059377,-1.1756043,9.943785,0.0035260576,-4.4022413E-4,0.010349564,28.45185,-0.51079947,11.770302,23.13006228,72.54571531,11.411975
1729838163196,0.44587487,-1.1535643,9.85457,0.0035260576,-4.4022413E-4,0.010349564,28.45185,-0.51079947,11.770302,23.13006228,72.54571531,11.411975
1729838163196,0.43303096,-1.1295913,9.76944,0.0035260576,-4.4022413E-4,0.010349564,28.45185,-0.51079947,11.770302,23.13006228,72.54571531,11.411975
1729838163196,0.41689342,-1.1002434,9.700857,0.0035260576,-4.4022413E-4,0.010349564,28.45185,-0.51079947,11.770302,23.13006228,72.54571531,11.411975
1729838163197,0.38687468,-1.0939934,9.630318,0.0035260576,-4.4022413E-4,0.010349564,28.45185,-0.51079947,11.770302,23.13006228,72.54571531,11.411975
1729838163197,0.36274004,-1.0720043,9.586209,0.0035260576,-4.4022413E-4,0.010349564,28.45185,-0.51079947,11.770302,23.13006228,72.54571531,11.411975
1729838163197,0.5530436,-1.127155,9.639338,0.0035260576,-4.4022413E-4,0.010349564,28.45185,-0.51079947,11.770302,23.13006228,72.54571531,11.411975
1729838163239,0.5530436,-1.127155,9.639338,0.0035260576,-4.4022413E-4,0.010349564,28.32648,-0.70863956,10.878741,23.13006228,72.54571531,11.411975
1729838163305,0.16714063,-1.9223824,10.019826,0.0035260576,-4.4022413E-4,0.010349564,28.32648,-0.70863956,10.878741,23.13006228,72.54571531,11.411975
1729838163306,0.47133976,-1.6189029,10.607048,0.0035260576,-4.4022413E-4,0.010349564,28.32648,-0.70863956,10.878741,23.13006228,72.54571531,11.411975
1729838163306,0.50221646,-1.4431185,10.926557,0.0035260576,-4.4022413E-4,0.010349564,28.32648,-0.70863956,10.878741,23.13006228,72.54571531,11.411975
1729838163306,0.15327857,-1.5909456,10.6433,0.0035260576,-4.4022413E-4,0.010349564,28.32648,-0.70863956,10.878741,23.13006228,72.54571531,11.411975
1729838163307,0.17753814,-1.5688683,10.376017,0.0035260576,-4.4022413E-4,0.010349564,28.32648,-0.70863956,10.878741,23.13006228,72.54571531,11.411975
1729838163331,0.17753814,-1.5688683,10.376017,-0.014680428,0.0010833528,0.008065849,28.32648,-0.70863956,10.878741,23.13006228,72.54571531,11.411975
1729838163442,0.17753814,-1.5688683,10.376017,-0.014680428,0.0010833528,0.008065849,28.312435,-1.0319116,10.472994,23.13006228,72.54571531,11.411975
1729838163464,0.085799195,-1.123968,10.044463,-0.014680428,0.0010833528,0.008065849,28.312435,-1.0319116,10.472994,23.13006228,72.54571531,11.411975
1729838163464,-0.061171256,-1.0716969,9.400677,-0.014680428,0.0010833528,0.008065849,28.312435,-1.0319116,10.472994,23.13006228,72.54571531,11.411975
1729838163465,0.14894941,-1.0870684,8.58463,-0.014680428,0.0010833528,0.008065849,28.312435,-1.0319116,10.472994,23.13006228,72.54571531,11.411975
1729838163465,-0.009335026,-1.160622,8.244056,-0.014680428,0.0010833528,0.008065849,28.312435,-1.0319116,10.472994,23.13006228,72.54571531,11.411975
1729838163466,0.30718815,-1.0455066,8.454588,-0.014680428,0.0010833528,0.008065849,28.312435,-1.0319116,10.472994,23.13006228,72.54571531,11.411975
1729838163466,0.32495296,-1.0213704,8.457549,-0.014680428,0.0010833528,0.008065849,28.312435,-1.0319116,10.472994,23.13006228,72.54571531,11.411975
1729838163466,0.19128838,-1.0531483,8.434554,-0.014680428,0.0010833528,0.008065849,28.312435,-1.0319116,10.472994,23.13006228,72.54571531,11.411975
1729838163540,0.19128838,-1.0531483,8.434554,0.0028858678,-0.0016378632,0.013996858,28.312435,-1.0319116,10.472994,23.13006228,72.54571531,11.411975
1729838163639,0.19128838,-1.0531483,8.434554,0.0028858678,-0.0016378632,0.013996858,28.383698,-1.4292793,10.572145,23.13006228,72.54571531,11.411975
1729838163646,0.19128838,-1.0531483,8.434554,0.0028858678,-0.0016378632,0.013996858,28.383698,-1.4292793,10.572145,23.13006169,72.54574594,11.319182
1729838163650,0.36802584,-1.0946025,8.600884,0.0028858678,-0.0016378632,0.013996858,28.383698,-1.4292793,10.572145,23.13006169,72.54574594,11.319182
1729838163650,0.26642466,-1.0304976,8.866152,0.0028858678,-0.0016378632,0.013996858,28.383698,-1.4292793,10.572145,23.13006169,72.54574594,11.319182
1729838163651,0.33278087,-1.0527929,8.971407,0.0028858678,-0.0016378632,0.013996858,28.383698,-1.4292793,10.572145,23.13006169,72.54574594,11.319182
1729838163651,0.36959463,-1.0742185,9.070685,0.0028858678,-0.0016378632,0.013996858,28.383698,-1.4292793,10.572145,23.13006169,72.54574594,11.319182
1729838163651,0.3977296,-1.1180389,9.280158,0.0028858678,-0.0016378632,0.013996858,28.383698,-1.4292793,10.572145,23.13006169,72.54574594,11.319182
1729838163652,0.4049235,-1.1578809,9.5199995,0.0028858678,-0.0016378632,0.013996858,28.383698,-1.4292793,10.572145,23.13006169,72.54574594,11.319182
1729838163652,0.49239352,-1.1043308,9.760925,0.0028858678,-0.0016378632,0.013996858,28.383698,-1.4292793,10.572145,23.13006169,72.54574594,11.319182
1729838163652,0.55339646,-1.0684298,10.028322,0.0028858678,-0.0016378632,0.013996858,28.383698,-1.4292793,10.572145,23.13006169,72.54574594,11.319182
1729838163653,0.45288667,-1.0551428,10.277295,0.0028858678,-0.0016378632,0.013996858,28.383698,-1.4292793,10.572145,23.13006169,72.54574594,11.319182
1729838163746,0.45288667,-1.0551428,10.277295,0.009242009,0.0031490219,0.0033478756,28.383698,-1.4292793,10.572145,23.13006169,72.54574594,11.319182
1729838163835,0.48159152,-1.0626986,10.513802,0.009242009,0.0031490219,0.0033478756,28.383698,-1.4292793,10.572145,23.13006169,72.54574594,11.319182
1729838163835,0.50850356,-1.0509167,10.705997,0.009242009,0.0031490219,0.0033478756,28.383698,-1.4292793,10.572145,23.13006169,72.54574594,11.319182
1729838163835,0.4872017,-1.0660176,10.82781,0.009242009,0.0031490219,0.0033478756,28.383698,-1.4292793,10.572145,23.13006169,72.54574594,11.319182
1729838163836,0.4631014,-1.0987962,10.861492,0.009242009,0.0031490219,0.0033478756,28.383698,-1.4292793,10.572145,23.13006169,72.54574594,11.319182
1729838163836,0.4432229,-1.1243013,10.82742,0.009242009,0.0031490219,0.0033478756,28.383698,-1.4292793,10.572145,23.13006169,72.54574594,11.319182
1729838163836,0.36702102,-1.1377662,10.734361,0.009242009,0.0031490219,0.0033478756,28.383698,-1.4292793,10.572145,23.13006169,72.54574594,11.319182
1729838163837,0.29397574,-1.139565,10.600691,0.009242009,0.0031490219,0.0033478756,28.383698,-1.4292793,10.572145,23.13006169,72.54574594,11.319182
1729838163837,0.36211982,-1.0335664,10.3635845,0.009242009,0.0031490219,0.0033478756,28.383698,-1.4292793,10.572145,23.13006169,72.54574594,11.319182
1729838163838,0.36211982,-1.0335664,10.3635845,0.009242009,0.0031490219,0.0033478756,28.575708,-1.8146734,11.086467,23.13006169,72.54574594,11.319182
1729838163954,0.36211982,-1.0335664,10.3635845,4.908354E-4,-0.0015430327,0.0011511386,28.575708,-1.8146734,11.086467,23.13006169,72.54574594,11.319182
1729838163995,-0.0162265,-0.892895,10.187658,4.908354E-4,-0.0015430327,0.0011511386,28.575708,-1.8146734,11.086467,23.13006169,72.54574594,11.319182
1729838163995,0.34235293,-0.99152446,10.0194,4.908354E-4,-0.0015430327,0.0011511386,28.575708,-1.8146734,11.086467,23.13006169,72.54574594,11.319182
1729838163996,0.07360311,-1.1412556,9.952031,4.908354E-4,-0.0015430327,0.0011511386,28.575708,-1.8146734,11.086467,23.13006169,72.54574594,11.319182
1729838163996,-0.09808667,-1.0568131,9.882224,4.908354E-4,-0.0015430327,0.0011511386,28.575708,-1.8146734,11.086467,23.13006169,72.54574594,11.319182
1729838163996,0.08675507,-0.91759413,9.649669,4.908354E-4,-0.0015430327,0.0011511386,28.575708,-1.8146734,11.086467,23.13006169,72.54574594,11.319182
1729838163997,0.07921463,-0.95744526,9.506455,4.908354E-4,-0.0015430327,0.0011511386,28.575708,-1.8146734,11.086467,23.13006169,72.54574594,11.319182
1729838163997,0.1133817,-0.9994957,9.430649,4.908354E-4,-0.0015430327,0.0011511386,28.575708,-1.8146734,11.086467,23.13006169,72.54574594,11.319182
1729838163997,0.2694492,-1.0123185,9.470981,4.908354E-4,-0.0015430327,0.0011511386,28.575708,-1.8146734,11.086467,23.13006169,72.54574594,11.319182
1729838164039,0.2694492,-1.0123185,9.470981,4.908354E-4,-0.0015430327,0.0011511386,28.819317,-2.0854888,11.820424,23.13006169,72.54574594,11.319182
1729838164155,0.38592833,-1.0969934,9.480275,4.908354E-4,-0.0015430327,0.0011511386,28.819317,-2.0854888,11.820424,23.13006169,72.54574594,11.319182
1729838164155,0.33338875,-1.0489209,9.495607,4.908354E-4,-0.0015430327,0.0011511386,28.819317,-2.0854888,11.820424,23.13006169,72.54574594,11.319182
1729838164156,0.68940306,-0.9396353,9.484543,4.908354E-4,-0.0015430327,0.0011511386,28.819317,-2.0854888,11.820424,23.13006169,72.54574594,11.319182
1729838164156,0.7458196,-1.0532038,9.536708,4.908354E-4,-0.0015430327,0.0011511386,28.819317,-2.0854888,11.820424,23.13006169,72.54574594,11.319182
1729838164156,0.6050306,-1.0988344,9.579277,4.908354E-4,-0.0015430327,0.0011511386,28.819317,-2.0854888,11.820424,23.13006169,72.54574594,11.319182
1729838164156,0.6311831,-0.917592,9.637739,4.908354E-4,-0.0015430327,0.0011511386,28.819317,-2.0854888,11.820424,23.13006169,72.54574594,11.319182
1729838164157,0.8405398,-0.87632686,9.624808,4.908354E-4,-0.0015430327,0.0011511386,28.819317,-2.0854888,11.820424,23.13006169,72.54574594,11.319182
1729838164158,0.8405398,-0.87632686,9.624808,-0.0032419767,-0.00108171,-0.0031107967,28.819317,-2.0854888,11.820424,23.13006169,72.54574594,11.319182
1729838164239,0.8405398,-0.87632686,9.624808,-0.0032419767,-0.00108171,-0.0031107967,29.017954,-2.1746411,12.4413395,23.13006169,72.54574594,11.319182
1729838164312,0.6475465,-0.9893966,9.640904,-0.0032419767,-0.00108171,-0.0031107967,29.017954,-2.1746411,12.4413395,23.13006169,72.54574594,11.319182
1729838164312,0.46156666,-1.0591545,9.695536,-0.0032419767,-0.00108171,-0.0031107967,29.017954,-2.1746411,12.4413395,23.13006169,72.54574594,11.319182
1729838164313,0.5518257,-1.0251102,9.766759,-0.0032419767,-0.00108171,-0.0031107967,29.017954,-2.1746411,12.4413395,23.13006169,72.54574594,11.319182
1729838164313,0.5479412,-0.9672468,9.792511,-0.0032419767,-0.00108171,-0.0031107967,29.017954,-2.1746411,12.4413395,23.13006169,72.54574594,11.319182
1729838164314,0.40317848,-0.9692911,9.808327,-0.0032419767,-0.00108171,-0.0031107967,29.017954,-2.1746411,12.4413395,23.13006169,72.54574594,11.319182
1729838164314,0.37398848,-1.0401987,9.819902,-0.0032419767,-0.00108171,-0.0031107967,29.017954,-2.1746411,12.4413395,23.13006169,72.54574594,11.319182
1729838164314,0.35279,-1.0363864,9.84711,-0.0032419767,-0.00108171,-0.0031107967,29.017954,-2.1746411,12.4413395,23.13006169,72.54574594,11.319182
1729838164365,0.35279,-1.0363864,9.84711,-0.0027157543,0.0024638448,-0.00374091,29.017954,-2.1746411,12.4413395,23.13006169,72.54574594,11.319182
1729838164425,0.31118518,-0.97519094,9.895316,-0.0027157543,0.0024638448,-0.00374091,29.017954,-2.1746411,12.4413395,23.13006169,72.54574594,11.319182
1729838164425,0.27598703,-0.96870714,9.919883,-0.0027157543,0.0024638448,-0.00374091,29.017954,-2.1746411,12.4413395,23.13006169,72.54574594,11.319182
1729838164426,0.3149472,-1.0240586,9.922189,-0.0027157543,0.0024638448,-0.00374091,29.017954,-2.1746411,12.4413395,23.13006169,72.54574594,11.319182
1729838164426,0.35090095,-1.0367545,9.907523,-0.0027157543,0.0024638448,-0.00374091,29.017954,-2.1746411,12.4413395,23.13006169,72.54574594,11.319182
1729838164426,0.34520733,-1.0134116,9.903447,-0.0027157543,0.0024638448,-0.00374091,29.017954,-2.1746411,12.4413395,23.13006169,72.54574594,11.319182
1729838164426,0.34771127,-0.9770305,9.889298,-0.0027157543,0.0024638448,-0.00374091,29.017954,-2.1746411,12.4413395,23.13006169,72.54574594,11.319182
1729838164438,0.34771127,-0.9770305,9.889298,-0.0027157543,0.0024638448,-0.00374091,29.158113,-2.155963,12.911821,23.13006169,72.54574594,11.319182
1729838164572,0.34771127,-0.9770305,9.889298,-7.370714E-4,0.0016961868,-0.008398881,29.158113,-2.155963,12.911821,23.13006169,72.54574594,11.319182
1729838164625,0.4000833,-0.98896253,9.8953285,-7.370714E-4,0.0016961868,-0.008398881,29.158113,-2.155963,12.911821,23.13006169,72.54574594,11.319182
1729838164625,0.39914945,-1.0294952,9.922645,-7.370714E-4,0.0016961868,-0.008398881,29.158113,-2.155963,12.911821,23.13006169,72.54574594,11.319182
1729838164626,0.40605938,-1.0162184,9.940788,-7.370714E-4,0.0016961868,-0.008398881,29.158113,-2.155963,12.911821,23.13006169,72.54574594,11.319182
1729838164626,0.46769902,-1.0060755,9.93987,-7.370714E-4,0.0016961868,-0.008398881,29.158113,-2.155963,12.911821,23.13006169,72.54574594,11.319182
1729838164626,0.48686117,-1.0071735,9.94751,-7.370714E-4,0.0016961868,-0.008398881,29.158113,-2.155963,12.911821,23.13006169,72.54574594,11.319182
1729838164627,0.48520184,-1.015709,9.945725,-7.370714E-4,0.0016961868,-0.008398881,29.158113,-2.155963,12.911821,23.13006169,72.54574594,11.319182
1729838164627,0.5151007,-0.9965753,9.942623,-7.370714E-4,0.0016961868,-0.008398881,29.158113,-2.155963,12.911821,23.13006169,72.54574594,11.319182
1729838164627,0.49786326,-0.9855753,9.946841,-7.370714E-4,0.0016961868,-0.008398881,29.158113,-2.155963,12.911821,23.13006169,72.54574594,11.319182
1729838164627,0.5316905,-0.994243,9.958471,-7.370714E-4,0.0016961868,-0.008398881,29.158113,-2.155963,12.911821,23.13006169,72.54574594,11.319182
1729838164638,0.5316905,-0.994243,9.958471,-7.370714E-4,0.0016961868,-0.008398881,29.221489,-2.0510204,13.213207,23.13006169,72.54574594,11.319182
1729838164650,0.5316905,-0.994243,9.958471,-7.370714E-4,0.0016961868,-0.008398881,29.221489,-2.0510204,13.213207,23.13006183,72.54577765,11.645869
1729838164656,0.5385329,-1.0033307,9.955691,-7.370714E-4,0.0016961868,-0.008398881,29.221489,-2.0510204,13.213207,23.13006183,72.54577765,11.645869
1729838164657,0.53359807,-0.99624395,9.95921,-7.370714E-4,0.0016961868,-0.008398881,29.221489,-2.0510204,13.213207,23.13006183,72.54577765,11.645869
1729838164779,0.53359807,-0.99624395,9.95921,-0.001231065,-6.589043E-4,-0.014416,29.221489,-2.0510204,13.213207,23.13006183,72.54577765,11.645869
1729838164794,0.31130514,-0.8678227,9.774069,-0.001231065,-6.589043E-4,-0.014416,29.221489,-2.0510204,13.213207,23.13006183,72.54577765,11.645869
1729838164794,0.6455348,-0.995993,9.471021,-0.001231065,-6.589043E-4,-0.014416,29.221489,-2.0510204,13.213207,23.13006183,72.54577765,11.645869
1729838164794,0.23407483,-0.98570776,9.541802,-0.001231065,-6.589043E-4,-0.014416,29.221489,-2.0510204,13.213207,23.13006183,72.54577765,11.645869
1729838164795,0.14921398,-0.9548674,9.756713,-0.001231065,-6.589043E-4,-0.014416,29.221489,-2.0510204,13.213207,23.13006183,72.54577765,11.645869
1729838164795,0.33855373,-0.91835064,9.720226,-0.001231065,-6.589043E-4,-0.014416,29.221489,-2.0510204,13.213207,23.13006183,72.54577765,11.645869
1729838164795,0.2720394,-0.94070256,9.534786,-0.001231065,-6.589043E-4,-0.014416,29.221489,-2.0510204,13.213207,23.13006183,72.54577765,11.645869
1729838164840,0.2720394,-0.94070256,9.534786,-0.001231065,-6.589043E-4,-0.014416,29.193441,-1.8733163,13.203066,23.13006183,72.54577765,11.645869
1729838164985,0.2720394,-0.94070256,9.534786,0.0037188064,1.14284514E-4,-0.026926592,29.193441,-1.8733163,13.203066,23.13006183,72.54577765,11.645869
1729838164994,0.44483003,-0.8852441,9.518159,0.0037188064,1.14284514E-4,-0.026926592,29.193441,-1.8733163,13.203066,23.13006183,72.54577765,11.645869
1729838164994,0.694927,-0.99090725,9.55714,0.0037188064,1.14284514E-4,-0.026926592,29.193441,-1.8733163,13.203066,23.13006183,72.54577765,11.645869
1729838164994,0.5810662,-1.1500938,9.77341,0.0037188064,1.14284514E-4,-0.026926592,29.193441,-1.8733163,13.203066,23.13006183,72.54577765,11.645869
1729838164995,1.0384125,-0.844103,9.938051,0.0037188064,1.14284514E-4,-0.026926592,29.193441,-1.8733163,13.203066,23.13006183,72.54577765,11.645869
1729838164995,1.0543392,-1.0667481,9.760731,0.0037188064,1.14284514E-4,-0.026926592,29.193441,-1.8733163,13.203066,23.13006183,72.54577765,11.645869
1729838164995,0.8626139,-0.91692793,9.782903,0.0037188064,1.14284514E-4,-0.026926592,29.193441,-1.8733163,13.203066,23.13006183,72.54577765,11.645869
1729838164996,1.000201,-0.9259253,9.864648,0.0037188064,1.14284514E-4,-0.026926592,29.193441,-1.8733163,13.203066,23.13006183,72.54577765,11.645869
1729838164996,0.86141706,-0.90189683,9.794491,0.0037188064,1.14284514E-4,-0.026926592,29.193441,-1.8733163,13.203066,23.13006183,72.54577765,11.645869
1729838164996,0.8735006,-0.8899722,9.837189,0.0037188064,1.14284514E-4,-0.026926592,29.193441,-1.8733163,13.203066,23.13006183,72.54577765,11.645869
1729838165025,0.71291816,-0.8877306,9.863091,0.0037188064,1.14284514E-4,-0.026926592,29.193441,-1.8733163,13.203066,23.13006183,72.54577765,11.645869
1729838165025,0.7761173,-0.9488686,9.896257,0.0037188064,1.14284514E-4,-0.026926592,29.193441,-1.8733163,13.203066,23.13006183,72.54577765,11.645869
1729838165038,0.7761173,-0.9488686,9.896257,0.0037188064,1.14284514E-4,-0.026926592,29.088503,-1.742403,12.932453,23.13006183,72.54577765,11.645869
1729838165193,0.7761173,-0.9488686,9.896257,0.004777096,0.0060168155,-0.035255186,29.088503,-1.742403,12.932453,23.13006183,72.54577765,11.645869
1729838165194,0.7753506,-0.9173801,9.96945,0.004777096,0.0060168155,-0.035255186,29.088503,-1.742403,12.932453,23.13006183,72.54577765,11.645869
1729838165194,0.68799734,-0.9125283,9.991274,0.004777096,0.0060168155,-0.035255186,29.088503,-1.742403,12.932453,23.13006183,72.54577765,11.645869
1729838165194,0.65161425,-0.9379589,9.985164,0.004777096,0.0060168155,-0.035255186,29.088503,-1.742403,12.932453,23.13006183,72.54577765,11.645869
1729838165195,0.70697445,-0.93066627,10.021073,0.004777096,0.0060168155,-0.035255186,29.088503,-1.742403,12.932453,23.13006183,72.54577765,11.645869
1729838165195,0.6478927,-0.92985713,10.02037,0.004777096,0.0060168155,-0.035255186,29.088503,-1.742403,12.932453,23.13006183,72.54577765,11.645869
1729838165195,0.67492443,-0.91844213,10.043854,0.004777096,0.0060168155,-0.035255186,29.088503,-1.742403,12.932453,23.13006183,72.54577765,11.645869
1729838165195,0.69786584,-0.88310874,10.034525,0.004777096,0.0060168155,-0.035255186,29.088503,-1.742403,12.932453,23.13006183,72.54577765,11.645869
1729838165240,0.69786584,-0.88310874,10.034525,0.004777096,0.0060168155,-0.035255186,28.982054,-1.7089224,12.614713,23.13006183,72.54577765,11.645869
1729838165320,0.66812325,-0.91203046,10.01462,0.004777096,0.0060168155,-0.035255186,28.982054,-1.7089224,12.614713,23.13006183,72.54577765,11.645869
1729838165320,0.6784269,-0.8888667,9.975007,0.004777096,0.0060168155,-0.035255186,28.982054,-1.7089224,12.614713,23.13006183,72.54577765,11.645869
1729838165321,0.72196394,-0.8523895,9.936138,0.004777096,0.0060168155,-0.035255186,28.982054,-1.7089224,12.614713,23.13006183,72.54577765,11.645869
1729838165321,0.6778304,-0.8283524,9.894036,0.004777096,0.0060168155,-0.035255186,28.982054,-1.7089224,12.614713,23.13006183,72.54577765,11.645869
1729838165322,0.6268506,-0.8544667,9.85509,0.004777096,0.0060168155,-0.035255186,28.982054,-1.7089224,12.614713,23.13006183,72.54577765,11.645869
1729838165322,0.6783101,-0.836714,9.824173,0.004777096,0.0060168155,-0.035255186,28.982054,-1.7089224,12.614713,23.13006183,72.54577765,11.645869
1729838165395,0.65391433,-0.80971026,9.800994,0.004777096,0.0060168155,-0.035255186,28.982054,-1.7089224,12.614713,23.13006183,72.54577765,11.645869
1729838165396,0.6568903,-0.78272337,9.762949,0.004777096,0.0060168155,-0.035255186,28.982054,-1.7089224,12.614713,23.13006183,72.54577765,11.645869
1729838165396,0.67422616,-0.81317776,9.761946,0.004777096,0.0060168155,-0.035255186,28.982054,-1.7089224,12.614713,23.13006183,72.54577765,11.645869
1729838165396,0.74205303,-0.7973419,9.749657,0.004777096,0.0060168155,-0.035255186,28.982054,-1.7089224,12.614713,23.13006183,72.54577765,11.645869
1729838165397,0.74205303,-0.7973419,9.749657,0.0024472314,0.0041415016,-0.046743892,28.982054,-1.7089224,12.614713,23.13006183,72.54577765,11.645869
1729838165439,0.74205303,-0.7973419,9.749657,0.0024472314,0.0041415016,-0.046743892,28.859394,-1.8358879,12.39427,23.13006183,72.54577765,11.645869
1729838165596,0.7513294,-0.7785715,9.75514,0.0024472314,0.0041415016,-0.046743892,28.859394,-1.8358879,12.39427,23.13006183,72.54577765,11.645869
1729838165596,0.7481025,-0.77157116,9.768859,0.0024472314,0.0041415016,-0.046743892,28.859394,-1.8358879,12.39427,23.13006183,72.54577765,11.645869
1729838165596,0.8068968,-0.79647934,9.802446,0.0024472314,0.0041415016,-0.046743892,28.859394,-1.8358879,12.39427,23.13006183,72.54577765,11.645869
1729838165597,0.79734206,-0.7842224,9.80443,0.0024472314,0.0041415016,-0.046743892,28.859394,-1.8358879,12.39427,23.13006183,72.54577765,11.645869
1729838165597,0.85801333,-0.7841078,9.810085,0.0024472314,0.0041415016,-0.046743892,28.859394,-1.8358879,12.39427,23.13006183,72.54577765,11.645869
1729838165597,0.861326,-0.74477386,9.853014,0.0024472314,0.0041415016,-0.046743892,28.859394,-1.8358879,12.39427,23.13006183,72.54577765,11.645869
1729838165598,0.8862294,-0.7908342,9.849312,0.0024472314,0.0041415016,-0.046743892,28.859394,-1.8358879,12.39427,23.13006183,72.54577765,11.645869
1729838165598,1.0269897,-0.73675513,9.841564,0.0024472314,0.0041415016,-0.046743892,28.859394,-1.8358879,12.39427,23.13006183,72.54577765,11.645869
1729838165598,1.036228,-0.7814281,9.859294,0.0024472314,0.0041415016,-0.046743892,28.859394,-1.8358879,12.39427,23.13006183,72.54577765,11.645869
1729838165603,1.036228,-0.7814281,9.859294,0.0025381066,0.0016638665,-0.06112721,28.859394,-1.8358879,12.39427,23.13006183,72.54577765,11.645869
1729838165640,1.036228,-0.7814281,9.859294,0.0025381066,0.0016638665,-0.06112721,28.810015,-2.1212103,12.435415,23.13006183,72.54577765,11.645869
1729838165653,1.036228,-0.7814281,9.859294,0.0025381066,0.0016638665,-0.06112721,28.810015,-2.1212103,12.435415,23.13006051,72.54581186,12.587347
1729838165659,1.0513952,-0.73329806,9.872162,0.0025381066,0.0016638665,-0.06112721,28.810015,-2.1212103,12.435415,23.13006051,72.54581186,12.587347
1729838165659,1.1301692,-0.7309257,9.874559,0.0025381066,0.0016638665,-0.06112721,28.810015,-2.1212103,12.435415,23.13006051,72.54581186,12.587347
1729838165660,1.17596,-0.69026405,9.867744,0.0025381066,0.0016638665,-0.06112721,28.810015,-2.1212103,12.435415,23.13006051,72.54581186,12.587347
1729838165755,1.0642376,-0.6944645,9.837406,0.0025381066,0.0016638665,-0.06112721,28.810015,-2.1212103,12.435415,23.13006051,72.54581186,12.587347
1729838165755,1.1550392,-0.6570273,9.846038,0.0025381066,0.0016638665,-0.06112721,28.810015,-2.1212103,12.435415,23.13006051,72.54581186,12.587347
1729838165755,1.1434532,-0.6787625,9.827101,0.0025381066,0.0016638665,-0.06112721,28.810015,-2.1212103,12.435415,23.13006051,72.54581186,12.587347
1729838165756,1.0899172,-0.6265195,9.813506,0.0025381066,0.0016638665,-0.06112721,28.810015,-2.1212103,12.435415,23.13006051,72.54581186,12.587347
1729838165811,1.0899172,-0.6265195,9.813506,9.6147193E-4,0.006462357,-0.080911085,28.810015,-2.1212103,12.435415,23.13006051,72.54581186,12.587347
1729838165839,1.0899172,-0.6265195,9.813506,9.6147193E-4,0.006462357,-0.080911085,28.868011,-2.5294683,12.899583,23.13006051,72.54581186,12.587347
1729838165916,1.0685041,-0.6486135,9.823089,9.6147193E-4,0.006462357,-0.080911085,28.868011,-2.5294683,12.899583,23.13006051,72.54581186,12.587347
1729838165916,1.0211045,-0.6341052,9.864853,9.6147193E-4,0.006462357,-0.080911085,28.868011,-2.5294683,12.899583,23.13006051,72.54581186,12.587347
1729838165916,1.077462,-0.62441283,9.8738575,9.6147193E-4,0.006462357,-0.080911085,28.868011,-2.5294683,12.899583,23.13006051,72.54581186,12.587347
1729838165917,0.9813714,-0.65075666,9.907741,9.6147193E-4,0.006462357,-0.080911085,28.868011,-2.5294683,12.899583,23.13006051,72.54581186,12.587347
1729838165917,1.0734322,-0.6587908,9.973252,9.6147193E-4,0.006462357,-0.080911085,28.868011,-2.5294683,12.899583,23.13006051,72.54581186,12.587347
1729838165917,1.1123849,-0.6884285,10.005562,9.6147193E-4,0.006462357,-0.080911085,28.868011,-2.5294683,12.899583,23.13006051,72.54581186,12.587347
1729838165918,1.1936767,-0.6562663,10.023993,9.6147193E-4,0.006462357,-0.080911085,28.868011,-2.5294683,12.899583,23.13006051,72.54581186,12.587347
1729838165918,1.1333263,-0.67623943,9.965755,9.6147193E-4,0.006462357,-0.080911085,28.868011,-2.5294683,12.899583,23.13006051,72.54581186,12.587347
1729838166017,1.1333263,-0.67623943,9.965755,-0.0016437381,0.009568112,-0.10248031,28.868011,-2.5294683,12.899583,23.13006051,72.54581186,12.587347
1729838166039,1.1333263,-0.67623943,9.965755,-0.0016437381,0.009568112,-0.10248031,28.95191,-2.9648247,13.634666,23.13006051,72.54581186,12.587347
1729838166075,1.239024,-0.72607636,9.957451,-0.0016437381,0.009568112,-0.10248031,28.95191,-2.9648247,13.634666,23.13006051,72.54581186,12.587347
1729838166075,1.3424855,-0.676574,9.994476,-0.0016437381,0.009568112,-0.10248031,28.95191,-2.9648247,13.634666,23.13006051,72.54581186,12.587347
1729838166076,1.2093025,-0.69344276,9.888064,-0.0016437381,0.009568112,-0.10248031,28.95191,-2.9648247,13.634666,23.13006051,72.54581186,12.587347
1729838166076,1.265827,-0.6727203,9.809036,-0.0016437381,0.009568112,-0.10248031,28.95191,-2.9648247,13.634666,23.13006051,72.54581186,12.587347
1729838166076,1.2410564,-0.6811474,9.779673,-0.0016437381,0.009568112,-0.10248031,28.95191,-2.9648247,13.634666,23.13006051,72.54581186,12.587347
1729838166076,1.2560556,-0.664918,9.7439785,-0.0016437381,0.009568112,-0.10248031,28.95191,-2.9648247,13.634666,23.13006051,72.54581186,12.587347
1729838166077,1.1162305,-0.6647361,9.715423,-0.0016437381,0.009568112,-0.10248031,28.95191,-2.9648247,13.634666,23.13006051,72.54581186,12.587347
1729838166225,1.1162305,-0.6647361,9.715423,-0.0018036824,0.012724667,-0.123889565,28.95191,-2.9648247,13.634666,23.13006051,72.54581186,12.587347
1729838166234,1.2119477,-0.6606424,9.694492,-0.0018036824,0.012724667,-0.123889565,28.95191,-2.9648247,13.634666,23.13006051,72.54581186,12.587347
1729838166234,1.2078834,-0.65198356,9.702035,-0.0018036824,0.012724667,-0.123889565,28.95191,-2.9648247,13.634666,23.13006051,72.54581186,12.587347
1729838166235,1.1899159,-0.65749913,9.683783,-0.0018036824,0.012724667,-0.123889565,28.95191,-2.9648247,13.634666,23.13006051,72.54581186,12.587347
1729838166235,1.2097594,-0.6580831,9.715122,-0.0018036824,0.012724667,-0.123889565,28.95191,-2.9648247,13.634666,23.13006051,72.54581186,12.587347
1729838166235,1.2929921,-0.6907338,9.768669,-0.0018036824,0.012724667,-0.123889565,28.95191,-2.9648247,13.634666,23.13006051,72.54581186,12.587347
1729838166235,1.2564476,-0.6798852,9.834717,-0.0018036824,0.012724667,-0.123889565,28.95191,-2.9648247,13.634666,23.13006051,72.54581186,12.587347
1729838166236,1.2680097,-0.6820937,9.843048,-0.0018036824,0.012724667,-0.123889565,28.95191,-2.9648247,13.634666,23.13006051,72.54581186,12.587347
1729838166236,1.3041786,-0.69079965,9.865985,-0.0018036824,0.012724667,-0.123889565,28.95191,-2.9648247,13.634666,23.13006051,72.54581186,12.587347
1729838166238,1.3041786,-0.69079965,9.865985,-0.0018036824,0.012724667,-0.123889565,29.034027,-3.4706097,14.485233,23.13006051,72.54581186,12.587347
1729838166326,1.2634826,-0.6862789,9.892829,-0.0018036824,0.012724667,-0.123889565,29.034027,-3.4706097,14.485233,23.13006051,72.54581186,12.587347
1729838166327,1.2025708,-0.67476594,9.898631,-0.0018036824,0.012724667,-0.123889565,29.034027,-3.4706097,14.485233,23.13006051,72.54581186,12.587347
1729838166327,1.259963,-0.6831428,9.871807,-0.0018036824,0.012724667,-0.123889565,29.034027,-3.4706097,14.485233,23.13006051,72.54581186,12.587347
1729838166327,1.2788379,-0.67118025,9.844485,-0.0018036824,0.012724667,-0.123889565,29.034027,-3.4706097,14.485233,23.13006051,72.54581186,12.587347
1729838166430,1.2788379,-0.67118025,9.844485,-0.004558356,0.015188824,-0.14443782,29.034027,-3.4706097,14.485233,23.13006051,72.54581186,12.587347
1729838166438,1.2788379,-0.67118025,9.844485,-0.004558356,0.015188824,-0.14443782,29.234722,-4.073988,15.555687,23.13006051,72.54581186,12.587347
1729838166506,1.2683346,-0.6607728,9.814373,-0.004558356,0.015188824,-0.14443782,29.234722,-4.073988,15.555687,23.13006051,72.54581186,12.587347
1729838166506,1.348945,-0.6575914,9.791839,-0.004558356,0.015188824,-0.14443782,29.234722,-4.073988,15.555687,23.13006051,72.54581186,12.587347
1729838166507,1.3828052,-0.65432847,9.772255,-0.004558356,0.015188824,-0.14443782,29.234722,-4.073988,15.555687,23.13006051,72.54581186,12.587347
1729838166507,1.4271218,-0.65554655,9.749051,-0.004558356,0.015188824,-0.14443782,29.234722,-4.073988,15.555687,23.13006051,72.54581186,12.587347
1729838166507,1.3953366,-0.6840385,9.758484,-0.004558356,0.015188824,-0.14443782,29.234722,-4.073988,15.555687,23.13006051,72.54581186,12.587347
1729838166507,1.5179045,-0.6971412,9.80946,-0.004558356,0.015188824,-0.14443782,29.234722,-4.073988,15.555687,23.13006051,72.54581186,12.587347
1729838166507,1.4478631,-0.7326283,9.858735,-0.004558356,0.015188824,-0.14443782,29.234722,-4.073988,15.555687,23.13006051,72.54581186,12.587347
1729838166508,1.5328869,-0.72357035,9.89313,-0.004558356,0.015188824,-0.14443782,29.234722,-4.073988,15.555687,23.13006051,72.54581186,12.587347
1729838166639,1.5328869,-0.72357035,9.89313,-0.005845798,0.019725783,-0.16609931,29.234722,-4.073988,15.555687,23.13006051,72.54581186,12.587347
1729838166640,1.5328869,-0.72357035,9.89313,-0.005845798,0.019725783,-0.16609931,29.556526,-4.69919,16.80955,23.13006051,72.54581186,12.587347
1729838166652,1.5328869,-0.72357035,9.89313,-0.005845798,0.019725783,-0.16609931,29.556526,-4.69919,16.80955,23.13005297,72.54584962,14.258194
1729838166655,1.5303177,-0.76358217,9.902461,-0.005845798,0.019725783,-0.16609931,29.556526,-4.69919,16.80955,23.13005297,72.54584962,14.258194
1729838166656,1.4386511,-0.7646046,9.932299,-0.005845798,0.019725783,-0.16609931,29.556526,-4.69919,16.80955,23.13005297,72.54584962,14.258194
1729838166656,1.4750288,-0.7444854,9.917884,-0.005845798,0.019725783,-0.16609931,29.556526,-4.69919,16.80955,23.13005297,72.54584962,14.258194
1729838166656,1.474101,-0.7322185,9.898335,-0.005845798,0.019725783,-0.16609931,29.556526,-4.69919,16.80955,23.13005297,72.54584962,14.258194
1729838166657,1.4728801,-0.7220461,9.849197,-0.005845798,0.019725783,-0.16609931,29.556526,-4.69919,16.80955,23.13005297,72.54584962,14.258194
1729838166657,1.4953531,-0.69608164,9.804383,-0.005845798,0.019725783,-0.16609931,29.556526,-4.69919,16.80955,23.13005297,72.54584962,14.258194
1729838166657,1.5657343,-0.7169452,9.754175,-0.005845798,0.019725783,-0.16609931,29.556526,-4.69919,16.80955,23.13005297,72.54584962,14.258194
1729838166705,1.599786,-0.6811135,9.753611,-0.005845798,0.019725783,-0.16609931,29.556526,-4.69919,16.80955,23.13005297,72.54584962,14.258194
1729838166706,1.5855119,-0.7015011,9.7334175,-0.005845798,0.019725783,-0.16609931,29.556526,-4.69919,16.80955,23.13005297,72.54584962,14.258194
1729838166706,1.5377218,-0.69137037,9.760573,-0.005845798,0.019725783,-0.16609931,29.556526,-4.69919,16.80955,23.13005297,72.54584962,14.258194
1729838166841,1.5377218,-0.69137037,9.760573,-0.005845798,0.019725783,-0.16609931,29.971472,-5.308102,18.07514,23.13005297,72.54584962,14.258194
1729838166842,1.5377218,-0.69137037,9.760573,-0.006356517,0.023569152,-0.18642175,29.971472,-5.308102,18.07514,23.13005297,72.54584962,14.258194
1729838166875,1.575342,-0.7020495,9.750712,-0.006356517,0.023569152,-0.18642175,29.971472,-5.308102,18.07514,23.13005297,72.54584962,14.258194
1729838166875,1.5471731,-0.70784104,9.763881,-0.006356517,0.023569152,-0.18642175,29.971472,-5.308102,18.07514,23.13005297,72.54584962,14.258194
1729838166875,1.5126739,-0.7119957,9.825502,-0.006356517,0.023569152,-0.18642175,29.971472,-5.308102,18.07514,23.13005297,72.54584962,14.258194
1729838166876,1.5445361,-0.730155,9.88796,-0.006356517,0.023569152,-0.18642175,29.971472,-5.308102,18.07514,23.13005297,72.54584962,14.258194
1729838166876,1.4902253,-0.7056794,9.911007,-0.006356517,0.023569152,-0.18642175,29.971472,-5.308102,18.07514,23.13005297,72.54584962,14.258194
1729838166876,1.4538355,-0.7058397,9.9416485,-0.006356517,0.023569152,-0.18642175,29.971472,-5.308102,18.07514,23.13005297,72.54584962,14.258194
1729838166877,1.5038064,-0.71278745,9.931465,-0.006356517,0.023569152,-0.18642175,29.971472,-5.308102,18.07514,23.13005297,72.54584962,14.258194
1729838166877,1.5272726,-0.7068601,9.920447,-0.006356517,0.023569152,-0.18642175,29.971472,-5.308102,18.07514,23.13005297,72.54584962,14.258194
1729838167038,1.451529,-0.70391285,9.880885,-0.006356517,0.023569152,-0.18642175,29.971472,-5.308102,18.07514,23.13005297,72.54584962,14.258194
1729838167038,1.5333072,-0.7026319,9.842536,-0.006356517,0.023569152,-0.18642175,29.971472,-5.308102,18.07514,23.13005297,72.54584962,14.258194
1729838167038,1.553266,-0.67815745,9.808985,-0.006356517,0.023569152,-0.18642175,29.971472,-5.308102,18.07514,23.13005297,72.54584962,14.258194
1729838167039,1.5299908,-0.68729174,9.775205,-0.006356517,0.023569152,-0.18642175,29.971472,-5.308102,18.07514,23.13005297,72.54584962,14.258194
1729838167039,1.6531454,-0.7074008,9.767682,-0.006356517,0.023569152,-0.18642175,29.971472,-5.308102,18.07514,23.13005297,72.54584962,14.258194
1729838167039,1.6243709,-0.74681807,9.759749,-0.006356517,0.023569152,-0.18642175,29.971472,-5.308102,18.07514,23.13005297,72.54584962,14.258194
1729838167040,1.6038638,-0.7298972,9.815497,-0.006356517,0.023569152,-0.18642175,29.971472,-5.308102,18.07514,23.13005297,72.54584962,14.258194
1729838167040,1.6038638,-0.7298972,9.815497,-0.006356517,0.023569152,-0.18642175,30.457178,-5.903982,19.293861,23.13005297,72.54584962,14.258194
1729838167051,1.6038638,-0.7298972,9.815497,-0.0060015107,0.026430044,-0.20252699,30.457178,-5.903982,19.293861,23.13005297,72.54584962,14.258194
1729838167209,1.6596017,-0.77785605,9.819897,-0.0060015107,0.026430044,-0.20252699,30.457178,-5.903982,19.293861,23.13005297,72.54584962,14.258194
1729838167209,1.6442518,-0.74599373,9.858232,-0.0060015107,0.026430044,-0.20252699,30.457178,-5.903982,19.293861,23.13005297,72.54584962,14.258194
1729838167210,1.6366379,-0.73521984,9.851571,-0.0060015107,0.026430044,-0.20252699,30.457178,-5.903982,19.293861,23.13005297,72.54584962,14.258194
1729838167210,1.6790013,-0.7502896,9.827699,-0.0060015107,0.026430044,-0.20252699,30.457178,-5.903982,19.293861,23.13005297,72.54584962,14.258194
1729838167210,1.6003098,-0.71915495,9.843177,-0.0060015107,0.026430044,-0.20252699,30.457178,-5.903982,19.293861,23.13005297,72.54584962,14.258194
1729838167211,1.6474266,-0.7281057,9.839289,-0.0060015107,0.026430044,-0.20252699,30.457178,-5.903982,19.293861,23.13005297,72.54584962,14.258194
1729838167211,1.6835647,-0.71528625,9.826606,-0.0060015107,0.026430044,-0.20252699,30.457178,-5.903982,19.293861,23.13005297,72.54584962,14.258194
1729838167211,1.5873303,-0.74451226,9.836201,-0.0060015107,0.026430044,-0.20252699,30.457178,-5.903982,19.293861,23.13005297,72.54584962,14.258194
1729838167239,1.5873303,-0.74451226,9.836201,-0.0060015107,0.026430044,-0.20252699,30.946993,-6.489436,20.422588,23.13005297,72.54584962,14.258194
1729838167256,1.5873303,-0.74451226,9.836201,-0.0028158983,0.028902018,-0.21907637,30.946993,-6.489436,20.422588,23.13005297,72.54584962,14.258194
1729838167268,1.536664,-0.750904,9.848064,-0.0028158983,0.028902018,-0.21907637,30.946993,-6.489436,20.422588,23.13005297,72.54584962,14.258194
1729838167268,1.5809565,-0.70756274,9.861623,-0.0028158983,0.028902018,-0.21907637,30.946993,-6.489436,20.422588,23.13005297,72.54584962,14.258194
1729838167268,1.5621929,-0.7069875,9.840884,-0.0028158983,0.028902018,-0.21907637,30.946993,-6.489436,20.422588,23.13005297,72.54584962,14.258194
1729838167331,1.4021771,-0.6926489,9.804552,-0.0028158983,0.028902018,-0.21907637,30.946993,-6.489436,20.422588,23.13005297,72.54584962,14.258194
1729838167331,1.6047329,-0.6492338,9.774889,-0.0028158983,0.028902018,-0.21907637,30.946993,-6.489436,20.422588,23.13005297,72.54584962,14.258194
1729838167332,1.6388812,-0.6480013,9.782624,-0.0028158983,0.028902018,-0.21907637,30.946993,-6.489436,20.422588,23.13005297,72.54584962,14.258194
1729838167439,1.6388812,-0.6480013,9.782624,-0.0028158983,0.028902018,-0.21907637,31.402596,-7.1077986,21.408072,23.13005297,72.54584962,14.258194
1729838167462,1.6388812,-0.6480013,9.782624,-0.0032606455,0.023427049,-0.23451498,31.402596,-7.1077986,21.408072,23.13005297,72.54584962,14.258194
1729838167468,1.5951331,-0.66986674,9.797546,-0.0032606455,0.023427049,-0.23451498,31.402596,-7.1077986,21.408072,23.13005297,72.54584962,14.258194
1729838167468,1.6382601,-0.64859533,9.811039,-0.0032606455,0.023427049,-0.23451498,31.402596,-7.1077986,21.408072,23.13005297,72.54584962,14.258194
1729838167468,1.7231307,-0.63409066,9.794076,-0.0032606455,0.023427049,-0.23451498,31.402596,-7.1077986,21.408072,23.13005297,72.54584962,14.258194
1729838167469,1.6639683,-0.66208816,9.79606,-0.0032606455,0.023427049,-0.23451498,31.402596,-7.1077986,21.408072,23.13005297,72.54584962,14.258194
1729838167469,1.5758408,-0.67156494,9.839162,-0.0032606455,0.023427049,-0.23451498,31.402596,-7.1077986,21.408072,23.13005297,72.54584962,14.258194
1729838167469,1.5854983,-0.6683786,9.857133,-0.0032606455,0.023427049,-0.23451498,31.402596,-7.1077986,21.408072,23.13005297,72.54584962,14.258194
1729838167642,1.5854983,-0.6683786,9.857133,-0.0032606455,0.023427049,-0.23451498,31.402596,-7.1077986,21.408072,23.13003436,72.54588799,16.15318
1729838167643,1.5854983,-0.6683786,9.857133,-0.0032606455,0.023427049,-0.23451498,31.883326,-7.7412386,22.188957,23.13003436,72.54588799,16.15318
1729838167650,1.584969,-0.66810274,9.848061,-0.0032606455,0.023427049,-0.23451498,31.883326,-7.7412386,22.188957,23.13003436,72.54588799,16.15318
1729838167650,1.6802585,-0.66596776,9.819745,-0.0032606455,0.023427049,-0.23451498,31.883326,-7.7412386,22.188957,23.13003436,72.54588799,16.15318
1729838167651,1.7940574,-0.71367157,9.829755,-0.0032606455,0.023427049,-0.23451498,31.883326,-7.7412386,22.188957,23.13003436,72.54588799,16.15318
1729838167651,1.9007695,-0.6944069,9.840275,-0.0032606455,0.023427049,-0.23451498,31.883326,-7.7412386,22.188957,23.13003436,72.54588799,16.15318
1729838167651,1.9953516,-0.72110885,9.877047,-0.0032606455,0.023427049,-0.23451498,31.883326,-7.7412386,22.188957,23.13003436,72.54588799,16.15318
1729838167652,2.0780761,-0.75802374,9.928597,-0.0032606455,0.023427049,-0.23451498,31.883326,-7.7412386,22.188957,23.13003436,72.54588799,16.15318
1729838167652,2.107167,-0.8156713,9.998552,-0.0032606455,0.023427049,-0.23451498,31.883326,-7.7412386,22.188957,23.13003436,72.54588799,16.15318
1729838167652,2.1361825,-0.79802066,10.043987,-0.0032606455,0.023427049,-0.23451498,31.883326,-7.7412386,22.188957,23.13003436,72.54588799,16.15318
1729838167653,2.0500429,-0.8090248,10.029248,-0.0032606455,0.023427049,-0.23451498,31.883326,-7.7412386,22.188957,23.13003436,72.54588799,16.15318
1729838167669,2.0500429,-0.8090248,10.029248,-0.0054490375,0.026713423,-0.24992019,31.883326,-7.7412386,22.188957,23.13003436,72.54588799,16.15318
1729838167835,2.0384393,-0.81734955,10.0063305,-0.0054490375,0.026713423,-0.24992019,31.883326,-7.7412386,22.188957,23.13003436,72.54588799,16.15318
1729838167835,2.0291564,-0.8213772,9.995295,-0.0054490375,0.026713423,-0.24992019,31.883326,-7.7412386,22.188957,23.13003436,72.54588799,16.15318
1729838167836,1.8045815,-0.7598735,9.934183,-0.0054490375,0.026713423,-0.24992019,31.883326,-7.7412386,22.188957,23.13003436,72.54588799,16.15318
1729838167836,1.7451609,-0.6924851,9.802263,-0.0054490375,0.026713423,-0.24992019,31.883326,-7.7412386,22.188957,23.13003436,72.54588799,16.15318
1729838167836,2.041473,-0.6669293,9.741472,-0.0054490375,0.026713423,-0.24992019,31.883326,-7.7412386,22.188957,23.13003436,72.54588799,16.15318
1729838167836,1.8712642,-0.70833915,9.731364,-0.0054490375,0.026713423,-0.24992019,31.883326,-7.7412386,22.188957,23.13003436,72.54588799,16.15318
1729838167837,1.6867622,-0.72232443,9.777834,-0.0054490375,0.026713423,-0.24992019,31.883326,-7.7412386,22.188957,23.13003436,72.54588799,16.15318
1729838167837,1.7994998,-0.70001316,9.79802,-0.0054490375,0.026713423,-0.24992019,31.883326,-7.7412386,22.188957,23.13003436,72.54588799,16.15318
1729838167841,1.7994998,-0.70001316,9.79802,-0.0054490375,0.026713423,-0.24992019,32.485413,-8.39424,22.794916,23.13003436,72.54588799,16.15318
1729838167877,1.7994998,-0.70001316,9.79802,-0.006191824,0.03468759,-0.25992307,32.485413,-8.39424,22.794916,23.13003436,72.54588799,16.15318
1729838167995,1.937307,-0.6509378,9.728028,-0.006191824,0.03468759,-0.25992307,32.485413,-8.39424,22.794916,23.13003436,72.54588799,16.15318
1729838167995,1.8517002,-0.7211491,9.650021,-0.006191824,0.03468759,-0.25992307,32.485413,-8.39424,22.794916,23.13003436,72.54588799,16.15318
1729838167996,1.7372725,-0.7204886,9.628173,-0.006191824,0.03468759,-0.25992307,32.485413,-8.39424,22.794916,23.13003436,72.54588799,16.15318
1729838167996,1.8716129,-0.6615754,9.5615225,-0.006191824,0.03468759,-0.25992307,32.485413,-8.39424,22.794916,23.13003436,72.54588799,16.15318
1729838167996,1.7674401,-0.7059703,9.524234,-0.006191824,0.03468759,-0.25992307,32.485413,-8.39424,22.794916,23.13003436,72.54588799,16.15318
1729838167996,1.6319382,-0.69662076,9.582698,-0.006191824,0.03468759,-0.25992307,32.485413,-8.39424,22.794916,23.13003436,72.54588799,16.15318
1729838167997,1.5871859,-0.6616237,9.72267,-0.006191824,0.03468759,-0.25992307,32.485413,-8.39424,22.794916,23.13003436,72.54588799,16.15318
1729838167997,1.6095295,-0.7267068,9.828306,-0.006191824,0.03468759,-0.25992307,32.485413,-8.39424,22.794916,23.13003436,72.54588799,16.15318
1729838168039,1.6095295,-0.7267068,9.828306,-0.006191824,0.03468759,-0.25992307,33.21833,-9.100392,23.294683,23.13003436,72.54588799,16.15318
1729838168084,1.6095295,-0.7267068,9.828306,-0.00684714,0.025856392,-0.27320936,33.21833,-9.100392,23.294683,23.13003436,72.54588799,16.15318
1729838168155,1.859628,-0.75747716,9.885298,-0.00684714,0.025856392,-0.27320936,33.21833,-9.100392,23.294683,23.13003436,72.54588799,16.15318
1729838168155,1.6071042,-0.6445062,9.935677,-0.00684714,0.025856392,-0.27320936,33.21833,-9.100392,23.294683,23.13003436,72.54588799,16.15318
1729838168156,1.4723235,-0.5172799,9.796758,-0.00684714,0.025856392,-0.27320936,33.21833,-9.100392,23.294683,23.13003436,72.54588799,16.15318
1729838168156,1.7467524,-0.55894864,9.816031,-0.00684714,0.025856392,-0.27320936,33.21833,-9.100392,23.294683,23.13003436,72.54588799,16.15318
1729838168156,1.9008517,-0.6577273,9.894022,-0.00684714,0.025856392,-0.27320936,33.21833,-9.100392,23.294683,23.13003436,72.54588799,16.15318
1729838168157,1.9165739,-0.5934202,9.844072,-0.00684714,0.025856392,-0.27320936,33.21833,-9.100392,23.294683,23.13003436,72.54588799,16.15318
1729838168157,1.8590419,-0.5407781,9.822776,-0.00684714,0.025856392,-0.27320936,33.21833,-9.100392,23.294683,23.13003436,72.54588799,16.15318
1729838168236,2.1431062,-0.6711869,9.841152,-0.00684714,0.025856392,-0.27320936,33.21833,-9.100392,23.294683,23.13003436,72.54588799,16.15318
1729838168236,2.3056319,-0.63397855,9.85071,-0.00684714,0.025856392,-0.27320936,33.21833,-9.100392,23.294683,23.13003436,72.54588799,16.15318
1729838168236,2.2692316,-0.57992464,9.919252,-0.00684714,0.025856392,-0.27320936,33.21833,-9.100392,23.294683,23.13003436,72.54588799,16.15318
1729838168236,2.2413077,-0.69939345,9.952312,-0.00684714,0.025856392,-0.27320936,33.21833,-9.100392,23.294683,23.13003436,72.54588799,16.15318
1729838168240,2.2413077,-0.69939345,9.952312,-0.00684714,0.025856392,-0.27320936,34.093414,-9.860313,23.761997,23.13003436,72.54588799,16.15318
1729838168290,2.2413077,-0.69939345,9.952312,-0.012624829,0.022517709,-0.28783956,34.093414,-9.860313,23.761997,23.13003436,72.54588799,16.15318
1729838168338,2.4930663,-0.7262945,9.931263,-0.012624829,0.022517709,-0.28783956,34.093414,-9.860313,23.761997,23.13003436,72.54588799,16.15318
1729838168339,2.3753905,-0.63152415,9.8969555,-0.012624829,0.022517709,-0.28783956,34.093414,-9.860313,23.761997,23.13003436,72.54588799,16.15318
1729838168339,2.2752676,-0.628689,9.739579,-0.012624829,0.022517709,-0.28783956,34.093414,-9.860313,23.761997,23.13003436,72.54588799,16.15318
1729838168339,2.3779812,-0.6385046,9.57994,-0.012624829,0.022517709,-0.28783956,34.093414,-9.860313,23.761997,23.13003436,72.54588799,16.15318
1729838168339,2.4676893,-0.7533163,9.502237,-0.012624829,0.022517709,-0.28783956,34.093414,-9.860313,23.761997,23.13003436,72.54588799,16.15318
1729838168435,2.123703,-0.706023,9.623844,-0.012624829,0.022517709,-0.28783956,34.093414,-9.860313,23.761997,23.13003436,72.54588799,16.15318
1729838168435,2.4811761,-0.82013255,9.759535,-0.012624829,0.022517709,-0.28783956,34.093414,-9.860313,23.761997,23.13003436,72.54588799,16.15318
1729838168436,2.5502453,-0.7744311,9.807669,-0.012624829,0.022517709,-0.28783956,34.093414,-9.860313,23.761997,23.13003436,72.54588799,16.15318
1729838168436,2.5386212,-0.8107314,9.763863,-0.012624829,0.022517709,-0.28783956,34.093414,-9.860313,23.761997,23.13003436,72.54588799,16.15318
1729838168439,2.5386212,-0.8107314,9.763863,-0.012624829,0.022517709,-0.28783956,35.093483,-10.678251,24.233349,23.13003436,72.54588799,16.15318
1729838168497,2.5386212,-0.8107314,9.763863,-0.015017325,0.040493988,-0.29181626,35.093483,-10.678251,24.233349,23.13003436,72.54588799,16.15318
1729838168635,2.220169,-0.7596121,9.666365,-0.015017325,0.040493988,-0.29181626,35.093483,-10.678251,24.233349,23.13003436,72.54588799,16.15318
1729838168635,2.1721475,-0.70531684,9.475066,-0.015017325,0.040493988,-0.29181626,35.093483,-10.678251,24.233349,23.13003436,72.54588799,16.15318
1729838168635,2.1687849,-0.63292754,9.406614,-0.015017325,0.040493988,-0.29181626,35.093483,-10.678251,24.233349,23.13003436,72.54588799,16.15318
1729838168636,1.9771816,-0.69776785,9.407007,-0.015017325,0.040493988,-0.29181626,35.093483,-10.678251,24.233349,23.13003436,72.54588799,16.15318
1729838168636,1.9441383,-0.6395703,9.432207,-0.015017325,0.040493988,-0.29181626,35.093483,-10.678251,24.233349,23.13003436,72.54588799,16.15318
1729838168636,1.8545331,-0.70714986,9.519007,-0.015017325,0.040493988,-0.29181626,35.093483,-10.678251,24.233349,23.13003436,72.54588799,16.15318
1729838168636,1.7382228,-0.5248026,9.611537,-0.015017325,0.040493988,-0.29181626,35.093483,-10.678251,24.233349,23.13003436,72.54588799,16.15318
1729838168637,1.6109573,-0.6338801,9.601812,-0.015017325,0.040493988,-0.29181626,35.093483,-10.678251,24.233349,23.13003436,72.54588799,16.15318
1729838168637,1.6304609,-0.75715405,9.787851,-0.015017325,0.040493988,-0.29181626,35.093483,-10.678251,24.233349,23.13003436,72.54588799,16.15318
1729838168640,1.6304609,-0.75715405,9.787851,-0.015017325,0.040493988,-0.29181626,36.231037,-11.508852,24.65918,23.13003436,72.54588799,16.15318
1729838168647,1.6304609,-0.75715405,9.787851,-0.015017325,0.040493988,-0.29181626,36.231037,-11.508852,24.65918,23.13000152,72.54592102,17.774931
1729838168655,1.0423547,-0.50845504,9.89074,-0.015017325,0.040493988,-0.29181626,36.231037,-11.508852,24.65918,23.13000152,72.54592102,17.774931
1729838168703,1.0423547,-0.50845504,9.89074,-0.017755989,0.036304727,-0.28919443,36.231037,-11.508852,24.65918,23.13000152,72.54592102,17.774931
1729838168795,1.2184104,-0.59244704,9.75052,-0.017755989,0.036304727,-0.28919443,36.231037,-11.508852,24.65918,23.13000152,72.54592102,17.774931
1729838168796,0.9546286,-0.6303286,9.696848,-0.017755989,0.036304727,-0.28919443,36.231037,-11.508852,24.65918,23.13000152,72.54592102,17.774931
1729838168796,1.1806521,-0.6644623,9.888765,-0.017755989,0.036304727,-0.28919443,36.231037,-11.508852,24.65918,23.13000152,72.54592102,17.774931
1729838168796,1.2778419,-0.730892,10.075799,-0.017755989,0.036304727,-0.28919443,36.231037,-11.508852,24.65918,23.13000152,72.54592102,17.774931
1729838168797,1.5266805,-0.7292401,10.166323,-0.017755989,0.036304727,-0.28919443,36.231037,-11.508852,24.65918,23.13000152,72.54592102,17.774931
1729838168797,1.5015439,-0.85354173,10.160497,-0.017755989,0.036304727,-0.28919443,36.231037,-11.508852,24.65918,23.13000152,72.54592102,17.774931
1729838168797,1.6558714,-0.82317245,10.2030945,-0.017755989,0.036304727,-0.28919443,36.231037,-11.508852,24.65918,23.13000152,72.54592102,17.774931
1729838168839,1.6558714,-0.82317245,10.2030945,-0.017755989,0.036304727,-0.28919443,37.54233,-12.357082,25.029844,23.13000152,72.54592102,17.774931
1729838168910,1.6558714,-0.82317245,10.2030945,-0.013868816,0.022354813,-0.30074978,37.54233,-12.357082,25.029844,23.13000152,72.54592102,17.774931
1729838168957,1.9609487,-0.92103064,10.202356,-0.013868816,0.022354813,-0.30074978,37.54233,-12.357082,25.029844,23.13000152,72.54592102,17.774931
1729838168957,2.0710125,-0.9735943,10.307529,-0.013868816,0.022354813,-0.30074978,37.54233,-12.357082,25.029844,23.13000152,72.54592102,17.774931
1729838168958,2.280858,-0.94792837,10.373483,-0.013868816,0.022354813,-0.30074978,37.54233,-12.357082,25.029844,23.13000152,72.54592102,17.774931
1729838168958,2.428635,-0.8971264,10.2628145,-0.013868816,0.022354813,-0.30074978,37.54233,-12.357082,25.029844,23.13000152,72.54592102,17.774931
1729838168958,2.634314,-0.87622565,10.046623,-0.013868816,0.022354813,-0.30074978,37.54233,-12.357082,25.029844,23.13000152,72.54592102,17.774931
1729838168959,2.311559,-0.8349786,9.868646,-0.013868816,0.022354813,-0.30074978,37.54233,-12.357082,25.029844,23.13000152,72.54592102,17.774931
1729838168959,2.4926772,-0.74479246,9.813004,-0.013868816,0.022354813,-0.30074978,37.54233,-12.357082,25.029844,23.13000152,72.54592102,17.774931
1729838169040,2.4926772,-0.74479246,9.813004,-0.013868816,0.022354813,-0.30074978,39.045113,-13.2231655,25.363876,23.13000152,72.54592102,17.774931
1729838169114,2.4765348,-0.76548505,9.763105,-0.013868816,0.022354813,-0.30074978,39.045113,-13.2231655,25.363876,23.13000152,72.54592102,17.774931
1729838169115,2.344219,-0.6918298,9.67557,-0.013868816,0.022354813,-0.30074978,39.045113,-13.2231655,25.363876,23.13000152,72.54592102,17.774931
1729838169115,2.526223,-0.6696354,9.591543,-0.013868816,0.022354813,-0.30074978,39.045113,-13.2231655,25.363876,23.13000152,72.54592102,17.774931
1729838169115,2.4714272,-0.63333553,9.509007,-0.013868816,0.022354813,-0.30074978,39.045113,-13.2231655,25.363876,23.13000152,72.54592102,17.774931
1729838169116,2.400791,-0.62032753,9.358752,-0.013868816,0.022354813,-0.30074978,39.045113,-13.2231655,25.363876,23.13000152,72.54592102,17.774931
1729838169116,2.2434244,-0.64342064,9.179924,-0.013868816,0.022354813,-0.30074978,39.045113,-13.2231655,25.363876,23.13000152,72.54592102,17.774931
1729838169116,2.1031744,-0.6743378,9.150281,-0.013868816,0.022354813,-0.30074978,39.045113,-13.2231655,25.363876,23.13000152,72.54592102,17.774931
1729838169116,2.1808448,-0.66317916,9.327563,-0.013868816,0.022354813,-0.30074978,39.045113,-13.2231655,25.363876,23.13000152,72.54592102,17.774931
1729838169117,2.1808448,-0.66317916,9.327563,-0.0031232685,0.04131051,-0.29249278,39.045113,-13.2231655,25.363876,23.13000152,72.54592102,17.774931
1729838169239,2.1808448,-0.66317916,9.327563,-0.0031232685,0.04131051,-0.29249278,40.71984,-14.122282,25.807352,23.13000152,72.54592102,17.774931
1729838169275,2.065673,-0.7050997,9.441633,-0.0031232685,0.04131051,-0.29249278,40.71984,-14.122282,25.807352,23.13000152,72.54592102,17.774931
1729838169275,1.9246025,-0.66613364,9.566507,-0.0031232685,0.04131051,-0.29249278,40.71984,-14.122282,25.807352,23.13000152,72.54592102,17.774931
1729838169275,1.6609981,-0.7124883,9.729578,-0.0031232685,0.04131051,-0.29249278,40.71984,-14.122282,25.807352,23.13000152,72.54592102,17.774931
1729838169276,1.4091973,-0.70016015,9.903942,-0.0031232685,0.04131051,-0.29249278,40.71984,-14.122282,25.807352,23.13000152,72.54592102,17.774931
1729838169276,1.4032502,-0.6411252,10.011609,-0.0031232685,0.04131051,-0.29249278,40.71984,-14.122282,25.807352,23.13000152,72.54592102,17.774931
1729838169276,1.3794696,-0.6376859,10.126218,-0.0031232685,0.04131051,-0.29249278,40.71984,-14.122282,25.807352,23.13000152,72.54592102,17.774931
1729838169276,1.2532468,-0.6032295,10.234176,-0.0031232685,0.04131051,-0.29249278,40.71984,-14.122282,25.807352,23.13000152,72.54592102,17.774931
1729838169323,1.2532468,-0.6032295,10.234176,0.0027853653,0.046945583,-0.2817944,40.71984,-14.122282,25.807352,23.13000152,72.54592102,17.774931
1729838169344,1.3976524,-0.56453776,10.361579,0.0027853653,0.046945583,-0.2817944,40.71984,-14.122282,25.807352,23.13000152,72.54592102,17.774931
1729838169344,1.4844631,-0.44911775,10.331179,0.0027853653,0.046945583,-0.2817944,40.71984,-14.122282,25.807352,23.13000152,72.54592102,17.774931
1729838169345,1.342386,-0.482046,10.247517,0.0027853653,0.046945583,-0.2817944,40.71984,-14.122282,25.807352,23.13000152,72.54592102,17.774931
1729838169440,1.342386,-0.482046,10.247517,0.0027853653,0.046945583,-0.2817944,42.487125,-14.991575,26.342133,23.13000152,72.54592102,17.774931
1729838169530,1.342386,-0.482046,10.247517,-0.0049799113,0.03346367,-0.2715558,42.487125,-14.991575,26.342133,23.13000152,72.54592102,17.774931
1729838169544,1.2452348,-0.38719213,10.229041,-0.0049799113,0.03346367,-0.2715558,42.487125,-14.991575,26.342133,23.13000152,72.54592102,17.774931
1729838169544,1.3089298,-0.39912564,10.178608,-0.0049799113,0.03346367,-0.2715558,42.487125,-14.991575,26.342133,23.13000152,72.54592102,17.774931
1729838169545,1.2720691,-0.41656876,10.156925,-0.0049799113,0.03346367,-0.2715558,42.487125,-14.991575,26.342133,23.13000152,72.54592102,17.774931
1729838169545,1.292112,-0.46282637,10.140656,-0.0049799113,0.03346367,-0.2715558,42.487125,-14.991575,26.342133,23.13000152,72.54592102,17.774931
1729838169545,1.319273,-0.5192143,10.076195,-0.0049799113,0.03346367,-0.2715558,42.487125,-14.991575,26.342133,23.13000152,72.54592102,17.774931
1729838169546,1.5136439,-0.56587994,10.032283,-0.0049799113,0.03346367,-0.2715558,42.487125,-14.991575,26.342133,23.13000152,72.54592102,17.774931
1729838169546,1.5673261,-0.5889752,9.9419985,-0.0049799113,0.03346367,-0.2715558,42.487125,-14.991575,26.342133,23.13000152,72.54592102,17.774931
1729838169546,1.6156557,-0.7020875,9.850031,-0.0049799113,0.03346367,-0.2715558,42.487125,-14.991575,26.342133,23.13000152,72.54592102,17.774931
1729838169547,1.749075,-0.69590735,9.823356,-0.0049799113,0.03346367,-0.2715558,42.487125,-14.991575,26.342133,23.13000152,72.54592102,17.774931
1729838169547,1.7282732,-0.7372644,9.787659,-0.0049799113,0.03346367,-0.2715558,42.487125,-14.991575,26.342133,23.13000152,72.54592102,17.774931
1729838169639,1.7282732,-0.7372644,9.787659,-0.0049799113,0.03346367,-0.2715558,44.25345,-15.79201,26.859955,23.13000152,72.54592102,17.774931
1729838169646,1.7282732,-0.7372644,9.787659,-0.0049799113,0.03346367,-0.2715558,44.25345,-15.79201,26.859955,23.12995259,72.54594199,21.00518
1729838169648,1.8831971,-0.7293131,9.76257,-0.0049799113,0.03346367,-0.2715558,44.25345,-15.79201,26.859955,23.12995259,72.54594199,21.00518
1729838169648,1.9519815,-0.7722442,9.724553,-0.0049799113,0.03346367,-0.2715558,44.25345,-15.79201,26.859955,23.12995259,72.54594199,21.00518
1729838169649,1.8030211,-0.76351833,9.699045,-0.0049799113,0.03346367,-0.2715558,44.25345,-15.79201,26.859955,23.12995259,72.54594199,21.00518
1729838169649,1.946106,-0.7345236,9.652797,-0.0049799113,0.03346367,-0.2715558,44.25345,-15.79201,26.859955,23.12995259,72.54594199,21.00518
1729838169649,1.9014512,-0.7461434,9.617951,-0.0049799113,0.03346367,-0.2715558,44.25345,-15.79201,26.859955,23.12995259,72.54594199,21.00518
1729838169738,1.9014512,-0.7461434,9.617951,-0.009115193,0.034925982,-0.2669996,44.25345,-15.79201,26.859955,23.12995259,72.54594199,21.00518
1729838169747,1.7954981,-0.74550897,9.707802,-0.009115193,0.034925982,-0.2669996,44.25345,-15.79201,26.859955,23.12995259,72.54594199,21.00518
1729838169747,1.8175751,-0.74440324,9.725245,-0.009115193,0.034925982,-0.2669996,44.25345,-15.79201,26.859955,23.12995259,72.54594199,21.00518
1729838169747,1.8462436,-0.76589155,9.779041,-0.009115193,0.034925982,-0.2669996,44.25345,-15.79201,26.859955,23.12995259,72.54594199,21.00518
1729838169748,1.9791286,-0.7330723,9.786903,-0.009115193,0.034925982,-0.2669996,44.25345,-15.79201,26.859955,23.12995259,72.54594199,21.00518
1729838169840,1.9791286,-0.7330723,9.786903,-0.009115193,0.034925982,-0.2669996,46.00401,-16.52986,27.285465,23.12995259,72.54594199,21.00518
1729838169916,2.019993,-0.7820711,9.741866,-0.009115193,0.034925982,-0.2669996,46.00401,-16.52986,27.285465,23.12995259,72.54594199,21.00518
1729838169917,1.8358948,-0.75869787,9.702965,-0.009115193,0.034925982,-0.2669996,46.00401,-16.52986,27.285465,23.12995259,72.54594199,21.00518
1729838169917,1.860421,-0.75603116,9.70666,-0.009115193,0.034925982,-0.2669996,46.00401,-16.52986,27.285465,23.12995259,72.54594199,21.00518
1729838169917,1.6680378,-0.7908669,9.723255,-0.009115193,0.034925982,-0.2669996,46.00401,-16.52986,27.285465,23.12995259,72.54594199,21.00518
1729838169918,1.5274113,-0.7613077,9.792164,-0.009115193,0.034925982,-0.2669996,46.00401,-16.52986,27.285465,23.12995259,72.54594199,21.00518
1729838169918,1.6790777,-0.77821875,9.814031,-0.009115193,0.034925982,-0.2669996,46.00401,-16.52986,27.285465,23.12995259,72.54594199,21.00518
1729838169918,1.4587159,-0.786603,9.796709,-0.009115193,0.034925982,-0.2669996,46.00401,-16.52986,27.285465,23.12995259,72.54594199,21.00518
1729838169919,1.4423866,-0.79139614,9.808455,-0.009115193,0.034925982,-0.2669996,46.00401,-16.52986,27.285465,23.12995259,72.54594199,21.00518
1729838169942,1.4423866,-0.79139614,9.808455,-0.0076586735,0.04012754,-0.25907856,46.00401,-16.52986,27.285465,23.12995259,72.54594199,21.00518
1729838170039,1.4423866,-0.79139614,9.808455,-0.0076586735,0.04012754,-0.25907856,47.75321,-17.202637,27.655872,23.12995259,72.54594199,21.00518
1729838170074,1.5545875,-0.7776434,9.807563,-0.0076586735,0.04012754,-0.25907856,47.75321,-17.202637,27.655872,23.12995259,72.54594199,21.00518
1729838170075,1.4172692,-0.80851555,9.803738,-0.0076586735,0.04012754,-0.25907856,47.75321,-17.202637,27.655872,23.12995259,72.54594199,21.00518
1729838170075,1.3275144,-0.7465931,9.828674,-0.0076586735,0.04012754,-0.25907856,47.75321,-17.202637,27.655872,23.12995259,72.54594199,21.00518
1729838170075,1.302251,-0.7224191,9.792273,-0.0076586735,0.04012754,-0.25907856,47.75321,-17.202637,27.655872,23.12995259,72.54594199,21.00518
1729838170076,1.2841938,-0.73610085,9.758604,-0.0076586735,0.04012754,-0.25907856,47.75321,-17.202637,27.655872,23.12995259,72.54594199,21.00518
1729838170076,1.3581628,-0.65611905,9.772826,-0.0076586735,0.04012754,-0.25907856,47.75321,-17.202637,27.655872,23.12995259,72.54594199,21.00518
1729838170076,1.2695811,-0.64872384,9.7740345,-0.0076586735,0.04012754,-0.25907856,47.75321,-17.202637,27.655872,23.12995259,72.54594199,21.00518
1729838170149,1.2695811,-0.64872384,9.7740345,-0.007073779,0.036897317,-0.2469996,47.75321,-17.202637,27.655872,23.12995259,72.54594199,21.00518
1729838170240,1.2695811,-0.64872384,9.7740345,-0.007073779,0.036897317,-0.2469996,49.486317,-17.812109,27.970947,23.12995259,72.54594199,21.00518
1729838170275,1.3274497,-0.61983657,9.734084,-0.007073779,0.036897317,-0.2469996,49.486317,-17.812109,27.970947,23.12995259,72.54594199,21.00518
1729838170275,1.2696568,-0.62149245,9.7223425,-0.007073779,0.036897317,-0.2469996,49.486317,-17.812109,27.970947,23.12995259,72.54594199,21.00518
1729838170275,1.227251,-0.6509328,9.741185,-0.007073779,0.036897317,-0.2469996,49.486317,-17.812109,27.970947,23.12995259,72.54594199,21.00518
1729838170276,1.3362975,-0.65259075,9.763318,-0.007073779,0.036897317,-0.2469996,49.486317,-17.812109,27.970947,23.12995259,72.54594199,21.00518
1729838170276,1.3220791,-0.65918136,9.809499,-0.007073779,0.036897317,-0.2469996,49.486317,-17.812109,27.970947,23.12995259,72.54594199,21.00518
1729838170276,1.3710034,-0.6936463,9.797271,-0.007073779,0.036897317,-0.2469996,49.486317,-17.812109,27.970947,23.12995259,72.54594199,21.00518
1729838170276,1.2782983,-0.73270375,9.919213,-0.007073779,0.036897317,-0.2469996,49.486317,-17.812109,27.970947,23.12995259,72.54594199,21.00518
1729838170277,1.3327484,-0.7383465,9.886718,-0.007073779,0.036897317,-0.2469996,49.486317,-17.812109,27.970947,23.12995259,72.54594199,21.00518
1729838170277,1.2773653,-0.7387929,9.926404,-0.007073779,0.036897317,-0.2469996,49.486317,-17.812109,27.970947,23.12995259,72.54594199,21.00518
1729838170277,1.1648635,-0.7763585,9.941882,-0.007073779,0.036897317,-0.2469996,49.486317,-17.812109,27.970947,23.12995259,72.54594199,21.00518
1729838170351,1.1769158,-0.78355944,9.949359,-0.007073779,0.036897317,-0.2469996,49.486317,-17.812109,27.970947,23.12995259,72.54594199,21.00518
1729838170352,1.1786613,-0.77209187,9.990874,-0.007073779,0.036897317,-0.2469996,49.486317,-17.812109,27.970947,23.12995259,72.54594199,21.00518
1729838170352,1.0641255,-0.7787105,9.982929,-0.007073779,0.036897317,-0.2469996,49.486317,-17.812109,27.970947,23.12995259,72.54594199,21.00518
1729838170354,1.0641255,-0.7787105,9.982929,-0.007858137,0.036359537,-0.22921194,49.486317,-17.812109,27.970947,23.12995259,72.54594199,21.00518
1729838170439,1.0641255,-0.7787105,9.982929,-0.007858137,0.036359537,-0.22921194,51.172806,-18.344687,28.181759,23.12995259,72.54594199,21.00518
1729838170475,0.96591663,-0.7889106,9.938289,-0.007858137,0.036359537,-0.22921194,51.172806,-18.344687,28.181759,23.12995259,72.54594199,21.00518
1729838170475,1.119573,-0.7620159,9.894201,-0.007858137,0.036359537,-0.22921194,51.172806,-18.344687,28.181759,23.12995259,72.54594199,21.00518
1729838170475,1.0696167,-0.75258386,9.887765,-0.007858137,0.036359537,-0.22921194,51.172806,-18.344687,28.181759,23.12995259,72.54594199,21.00518
1729838170476,1.0712867,-0.72326356,9.82758,-0.007858137,0.036359537,-0.22921194,51.172806,-18.344687,28.181759,23.12995259,72.54594199,21.00518
1729838170476,0.9333604,-0.6956199,9.782305,-0.007858137,0.036359537,-0.22921194,51.172806,-18.344687,28.181759,23.12995259,72.54594199,21.00518
1729838170476,0.905811,-0.7150204,9.702774,-0.007858137,0.036359537,-0.22921194,51.172806,-18.344687,28.181759,23.12995259,72.54594199,21.00518
1729838170563,0.905811,-0.7150204,9.702774,-0.0061948798,0.03397455,-0.2055745,51.172806,-18.344687,28.181759,23.12995259,72.54594199,21.00518
1729838170594,0.88616437,-0.6744292,9.659847,-0.0061948798,0.03397455,-0.2055745,51.172806,-18.344687,28.181759,23.12995259,72.54594199,21.00518
1729838170595,0.8356315,-0.68526626,9.658647,-0.0061948798,0.03397455,-0.2055745,51.172806,-18.344687,28.181759,23.12995259,72.54594199,21.00518
1729838170595,0.6994922,-0.7073357,9.6797,-0.0061948798,0.03397455,-0.2055745,51.172806,-18.344687,28.181759,23.12995259,72.54594199,21.00518
1729838170595,0.9851573,-0.7088397,9.697978,-0.0061948798,0.03397455,-0.2055745,51.172806,-18.344687,28.181759,23.12995259,72.54594199,21.00518
1729838170595,0.8242575,-0.7607708,9.717028,-0.0061948798,0.03397455,-0.2055745,51.172806,-18.344687,28.181759,23.12995259,72.54594199,21.00518
1729838170640,0.8242575,-0.7607708,9.717028,-0.0061948798,0.03397455,-0.2055745,52.80699,-18.800749,28.309158,23.12995259,72.54594199,21.00518
1729838170648,0.8242575,-0.7607708,9.717028,-0.0061948798,0.03397455,-0.2055745,52.80699,-18.800749,28.309158,23.12990172,72.54595748,21.027956
1729838170655,0.7788079,-0.7190454,9.791848,-0.0061948798,0.03397455,-0.2055745,52.80699,-18.800749,28.309158,23.12990172,72.54595748,21.027956
1729838170655,1.1066358,-0.78353155,9.755992,-0.0061948798,0.03397455,-0.2055745,52.80699,-18.800749,28.309158,23.12990172,72.54595748,21.027956
1729838170655,1.1329658,-0.7397665,9.779112,-0.0061948798,0.03397455,-0.2055745,52.80699,-18.800749,28.309158,23.12990172,72.54595748,21.027956
1729838170755,0.90314233,-0.8438971,9.828834,-0.0061948798,0.03397455,-0.2055745,52.80699,-18.800749,28.309158,23.12990172,72.54595748,21.027956
1729838170756,1.0052259,-0.7739412,9.911562,-0.0061948798,0.03397455,-0.2055745,52.80699,-18.800749,28.309158,23.12990172,72.54595748,21.027956
1729838170756,1.020133,-0.7981361,9.890766,-0.0061948798,0.03397455,-0.2055745,52.80699,-18.800749,28.309158,23.12990172,72.54595748,21.027956
1729838170756,1.0257177,-0.795837,9.932156,-0.0061948798,0.03397455,-0.2055745,52.80699,-18.800749,28.309158,23.12990172,72.54595748,21.027956
1729838170757,0.9299262,-0.8102689,9.965984,-0.0061948798,0.03397455,-0.2055745,52.80699,-18.800749,28.309158,23.12990172,72.54595748,21.027956
1729838170767,0.9299262,-0.8102689,9.965984,-0.0056583984,0.027485074,-0.19075733,52.80699,-18.800749,28.309158,23.12990172,72.54595748,21.027956
1729838170839,0.9299262,-0.8102689,9.965984,-0.0056583984,0.027485074,-0.19075733,54.346844,-19.203098,28.347328,23.12990172,72.54595748,21.027956
1729838170915,1.1098036,-0.79441655,9.926886,-0.0056583984,0.027485074,-0.19075733,54.346844,-19.203098,28.347328,23.12990172,72.54595748,21.027956
1729838170915,1.0474441,-0.772642,9.895009,-0.0056583984,0.027485074,-0.19075733,54.346844,-19.203098,28.347328,23.12990172,72.54595748,21.027956
1729838170916,1.0900391,-0.7681436,9.890326,-0.0056583984,0.027485074,-0.19075733,54.346844,-19.203098,28.347328,23.12990172,72.54595748,21.027956
1729838170916,1.0991101,-0.7500683,9.841474,-0.0056583984,0.027485074,-0.19075733,54.346844,-19.203098,28.347328,23.12990172,72.54595748,21.027956
1729838170916,1.0819602,-0.7382402,9.818783,-0.0056583984,0.027485074,-0.19075733,54.346844,-19.203098,28.347328,23.12990172,72.54595748,21.027956
1729838170917,1.1084397,-0.7272223,9.786752,-0.0056583984,0.027485074,-0.19075733,54.346844,-19.203098,28.347328,23.12990172,72.54595748,21.027956
1729838170917,1.1390749,-0.6768926,9.765434,-0.0056583984,0.027485074,-0.19075733,54.346844,-19.203098,28.347328,23.12990172,72.54595748,21.027956
1729838170975,1.1390749,-0.6768926,9.765434,-0.0066647455,0.02369848,-0.17920904,54.346844,-19.203098,28.347328,23.12990172,72.54595748,21.027956
1729838171039,1.1390749,-0.6768926,9.765434,-0.0066647455,0.02369848,-0.17920904,55.796227,-19.55873,28.329113,23.12990172,72.54595748,21.027956
1729838171075,1.067272,-0.81393695,9.778291,-0.0066647455,0.02369848,-0.17920904,55.796227,-19.55873,28.329113,23.12990172,72.54595748,21.027956
1729838171076,0.99391735,-0.7882583,9.90032,-0.0066647455,0.02369848,-0.17920904,55.796227,-19.55873,28.329113,23.12990172,72.54595748,21.027956
1729838171076,1.0866992,-0.8150933,9.966598,-0.0066647455,0.02369848,-0.17920904,55.796227,-19.55873,28.329113,23.12990172,72.54595748,21.027956
1729838171076,1.0935669,-0.9369402,10.033737,-0.0066647455,0.02369848,-0.17920904,55.796227,-19.55873,28.329113,23.12990172,72.54595748,21.027956
1729838171077,1.0741757,-0.8464615,10.054548,-0.0066647455,0.02369848,-0.17920904,55.796227,-19.55873,28.329113,23.12990172,72.54595748,21.027956
1729838171078,0.85957986,-0.9415761,10.029682,-0.0066647455,0.02369848,-0.17920904,55.796227,-19.55873,28.329113,23.12990172,72.54595748,21.027956
1729838171078,1.2517718,-0.92997086,9.985142,-0.0066647455,0.02369848,-0.17920904,55.796227,-19.55873,28.329113,23.12990172,72.54595748,21.027956
1729838171079,1.0898323,-0.9229598,9.949511,-0.0066647455,0.02369848,-0.17920904,55.796227,-19.55873,28.329113,23.12990172,72.54595748,21.027956
1729838171182,1.0898323,-0.9229598,9.949511,-0.002705078,0.02155496,-0.16954279,55.796227,-19.55873,28.329113,23.12990172,72.54595748,21.027956
1729838171235,1.00048,-0.87942475,9.897795,-0.002705078,0.02155496,-0.16954279,55.796227,-19.55873,28.329113,23.12990172,72.54595748,21.027956
1729838171235,1.0920691,-0.79602236,9.902365,-0.002705078,0.02155496,-0.16954279,55.796227,-19.55873,28.329113,23.12990172,72.54595748,21.027956
1729838171235,1.1186804,-0.8024012,9.781354,-0.002705078,0.02155496,-0.16954279,55.796227,-19.55873,28.329113,23.12990172,72.54595748,21.027956
1729838171236,1.2282645,-0.74600875,9.706201,-0.002705078,0.02155496,-0.16954279,55.796227,-19.55873,28.329113,23.12990172,72.54595748,21.027956
1729838171236,1.1350343,-0.7754312,9.64225,-0.002705078,0.02155496,-0.16954279,55.796227,-19.55873,28.329113,23.12990172,72.54595748,21.027956
1729838171236,1.1084263,-0.71438295,9.621119,-0.002705078,0.02155496,-0.16954279,55.796227,-19.55873,28.329113,23.12990172,72.54595748,21.027956
1729838171236,1.1005398,-0.66745853,9.554922,-0.002705078,0.02155496,-0.16954279,55.796227,-19.55873,28.329113,23.12990172,72.54595748,21.027956
1729838171238,1.1005398,-0.66745853,9.554922,-0.002705078,0.02155496,-0.16954279,57.16948,-19.873234,28.265789,23.12990172,72.54595748,21.027956
1729838171359,1.0817878,-0.68674856,9.517756,-0.002705078,0.02155496,-0.16954279,57.16948,-19.873234,28.265789,23.12990172,72.54595748,21.027956
1729838171359,1.064872,-0.7162982,9.539949,-0.002705078,0.02155496,-0.16954279,57.16948,-19.873234,28.265789,23.12990172,72.54595748,21.027956
1729838171359,1.0366236,-0.70966876,9.577444,-0.002705078,0.02155496,-0.16954279,57.16948,-19.873234,28.265789,23.12990172,72.54595748,21.027956
1729838171360,1.0733668,-0.71740603,9.624668,-0.002705078,0.02155496,-0.16954279,57.16948,-19.873234,28.265789,23.12990172,72.54595748,21.027956
1729838171360,0.9709168,-0.775879,9.697622,-0.002705078,0.02155496,-0.16954279,57.16948,-19.873234,28.265789,23.12990172,72.54595748,21.027956
1729838171360,1.0157764,-0.87075317,9.779315,-0.002705078,0.02155496,-0.16954279,57.16948,-19.873234,28.265789,23.12990172,72.54595748,21.027956
1729838171389,1.0157764,-0.87075317,9.779315,-0.006531745,0.015625177,-0.16147381,57.16948,-19.873234,28.265789,23.12990172,72.54595748,21.027956
1729838171439,1.0157764,-0.87075317,9.779315,-0.006531745,0.015625177,-0.16147381,58.478085,-20.147337,28.177631,23.12990172,72.54595748,21.027956
1729838171505,1.0247449,-0.90178704,9.922436,-0.006531745,0.015625177,-0.16147381,58.478085,-20.147337,28.177631,23.12990172,72.54595748,21.027956
1729838171505,0.9748508,-0.9925364,10.040163,-0.006531745,0.015625177,-0.16147381,58.478085,-20.147337,28.177631,23.12990172,72.54595748,21.027956
1729838171506,1.0246664,-1.0537701,10.180885,-0.006531745,0.015625177,-0.16147381,58.478085,-20.147337,28.177631,23.12990172,72.54595748,21.027956
1729838171506,1.1055558,-1.0796663,10.237711,-0.006531745,0.015625177,-0.16147381,58.478085,-20.147337,28.177631,23.12990172,72.54595748,21.027956
1729838171506,1.0487119,-1.124431,10.164128,-0.006531745,0.015625177,-0.16147381,58.478085,-20.147337,28.177631,23.12990172,72.54595748,21.027956
1729838171507,1.042479,-1.1585679,10.156588,-0.006531745,0.015625177,-0.16147381,58.478085,-20.147337,28.177631,23.12990172,72.54595748,21.027956
1729838171507,1.0726672,-1.1395762,10.130216,-0.006531745,0.015625177,-0.16147381,58.478085,-20.147337,28.177631,23.12990172,72.54595748,21.027956
1729838171595,1.0726672,-1.1395762,10.130216,-0.009348733,0.011522758,-0.15327767,58.478085,-20.147337,28.177631,23.12990172,72.54595748,21.027956
1729838171640,1.0726672,-1.1395762,10.130216,-0.009348733,0.011522758,-0.15327767,59.731216,-20.38912,28.058355,23.12990172,72.54595748,21.027956
1729838171651,0.991414,-1.1467558,10.028361,-0.009348733,0.011522758,-0.15327767,59.731216,-20.38912,28.058355,23.12990172,72.54595748,21.027956
1729838171651,1.0764414,-1.1036859,9.85918,-0.009348733,0.011522758,-0.15327767,59.731216,-20.38912,28.058355,23.12990172,72.54595748,21.027956
1729838171652,1.091582,-1.0923207,9.675859,-0.009348733,0.011522758,-0.15327767,59.731216,-20.38912,28.058355,23.12990172,72.54595748,21.027956
1729838171652,1.097832,-1.132042,9.581247,-0.009348733,0.011522758,-0.15327767,59.731216,-20.38912,28.058355,23.12990172,72.54595748,21.027956
1729838171652,1.1983056,-1.0894024,9.623284,-0.009348733,0.011522758,-0.15327767,59.731216,-20.38912,28.058355,23.12990172,72.54595748,21.027956
1729838171652,1.1708878,-1.1092489,9.6081,-0.009348733,0.011522758,-0.15327767,59.731216,-20.38912,28.058355,23.12990172,72.54595748,21.027956
1729838171653,1.2982658,-1.1020353,9.5378065,-0.009348733,0.011522758,-0.15327767,59.731216,-20.38912,28.058355,23.12990172,72.54595748,21.027956
1729838171654,1.2982658,-1.1020353,9.5378065,-0.009348733,0.011522758,-0.15327767,59.731216,-20.38912,28.058355,23.1298476,72.54596228,21.520178
1729838171705,1.1949837,-1.0736523,9.514473,-0.009348733,0.011522758,-0.15327767,59.731216,-20.38912,28.058355,23.1298476,72.54596228,21.520178
1729838171706,1.1362861,-1.1033486,9.530024,-0.009348733,0.011522758,-0.15327767,59.731216,-20.38912,28.058355,23.1298476,72.54596228,21.520178
1729838171802,1.1362861,-1.1033486,9.530024,-0.0039970577,0.018717153,-0.14229198,59.731216,-20.38912,28.058355,23.1298476,72.54596228,21.520178
1729838171839,1.1362861,-1.1033486,9.530024,-0.0039970577,0.018717153,-0.14229198,60.936226,-20.605045,27.955433,23.1298476,72.54596228,21.520178
1729838171874,1.1437649,-1.1001865,9.567948,-0.0039970577,0.018717153,-0.14229198,60.936226,-20.605045,27.955433,23.1298476,72.54596228,21.520178
1729838171874,1.0285513,-1.0815052,9.536433,-0.0039970577,0.018717153,-0.14229198,60.936226,-20.605045,27.955433,23.1298476,72.54596228,21.520178
1729838171874,0.8601691,-1.0999401,9.575947,-0.0039970577,0.018717153,-0.14229198,60.936226,-20.605045,27.955433,23.1298476,72.54596228,21.520178
1729838171875,0.8221334,-1.095665,9.746581,-0.0039970577,0.018717153,-0.14229198,60.936226,-20.605045,27.955433,23.1298476,72.54596228,21.520178
1729838171875,0.7747158,-1.0832719,9.782709,-0.0039970577,0.018717153,-0.14229198,60.936226,-20.605045,27.955433,23.1298476,72.54596228,21.520178
1729838171875,0.6188155,-1.1013534,9.810535,-0.0039970577,0.018717153,-0.14229198,60.936226,-20.605045,27.955433,23.1298476,72.54596228,21.520178
1729838171875,0.7473755,-1.1104348,9.889626,-0.0039970577,0.018717153,-0.14229198,60.936226,-20.605045,27.955433,23.1298476,72.54596228,21.520178
1729838171876,0.7344109,-1.1240408,9.897983,-0.0039970577,0.018717153,-0.14229198,60.936226,-20.605045,27.955433,23.1298476,72.54596228,21.520178
1729838172010,0.7344109,-1.1240408,9.897983,-0.006374143,0.012988412,-0.12485969,60.936226,-20.605045,27.955433,23.1298476,72.54596228,21.520178
1729838172035,0.5636005,-1.1440184,9.9019165,-0.006374143,0.012988412,-0.12485969,60.936226,-20.605045,27.955433,23.1298476,72.54596228,21.520178
1729838172035,0.6275903,-1.0980264,9.933658,-0.006374143,0.012988412,-0.12485969,60.936226,-20.605045,27.955433,23.1298476,72.54596228,21.520178
1729838172035,0.5265987,-1.146178,10.0088215,-0.006374143,0.012988412,-0.12485969,60.936226,-20.605045,27.955433,23.1298476,72.54596228,21.520178
1729838172036,0.49282435,-1.1610103,10.001714,-0.006374143,0.012988412,-0.12485969,60.936226,-20.605045,27.955433,23.1298476,72.54596228,21.520178
1729838172036,0.44175702,-1.2003936,10.033715,-0.006374143,0.012988412,-0.12485969,60.936226,-20.605045,27.955433,23.1298476,72.54596228,21.520178
1729838172036,0.53908867,-1.2123988,10.075468,-0.006374143,0.012988412,-0.12485969,60.936226,-20.605045,27.955433,23.1298476,72.54596228,21.520178
1729838172036,0.49958602,-1.1952033,10.022728,-0.006374143,0.012988412,-0.12485969,60.936226,-20.605045,27.955433,23.1298476,72.54596228,21.520178
1729838172038,0.49958602,-1.1952033,10.022728,-0.006374143,0.012988412,-0.12485969,62.07648,-20.785288,27.861847,23.1298476,72.54596228,21.520178
1729838172195,0.5281634,-1.2052555,9.935552,-0.006374143,0.012988412,-0.12485969,62.07648,-20.785288,27.861847,23.1298476,72.54596228,21.520178
1729838172195,0.7501081,-1.2022903,9.880526,-0.006374143,0.012988412,-0.12485969,62.07648,-20.785288,27.861847,23.1298476,72.54596228,21.520178
1729838172195,0.8933269,-1.1852022,9.827651,-0.006374143,0.012988412,-0.12485969,62.07648,-20.785288,27.861847,23.1298476,72.54596228,21.520178
1729838172196,0.8512917,-1.203117,9.771593,-0.006374143,0.012988412,-0.12485969,62.07648,-20.785288,27.861847,23.1298476,72.54596228,21.520178
1729838172196,0.90906936,-1.207758,9.791593,-0.006374143,0.012988412,-0.12485969,62.07648,-20.785288,27.861847,23.1298476,72.54596228,21.520178
1729838172196,0.87919974,-1.1650499,9.773973,-0.006374143,0.012988412,-0.12485969,62.07648,-20.785288,27.861847,23.1298476,72.54596228,21.520178
1729838172197,0.7107775,-1.184722,9.697306,-0.006374143,0.012988412,-0.12485969,62.07648,-20.785288,27.861847,23.1298476,72.54596228,21.520178
1729838172197,0.68084544,-1.1825135,9.720676,-0.006374143,0.012988412,-0.12485969,62.07648,-20.785288,27.861847,23.1298476,72.54596228,21.520178
1729838172220,0.68084544,-1.1825135,9.720676,-0.0019839045,0.0143918935,-0.109478325,62.07648,-20.785288,27.861847,23.1298476,72.54596228,21.520178
1729838172221,0.5584351,-1.1818234,9.77371,-0.0019839045,0.0143918935,-0.109478325,62.07648,-20.785288,27.861847,23.1298476,72.54596228,21.520178
1729838172239,0.5584351,-1.1818234,9.77371,-0.0019839045,0.0143918935,-0.109478325,63.116188,-20.936981,27.764479,23.1298476,72.54596228,21.520178
1729838172355,0.3536673,-1.1984997,9.814582,-0.0019839045,0.0143918935,-0.109478325,63.116188,-20.936981,27.764479,23.1298476,72.54596228,21.520178
1729838172356,0.38654304,-1.1785805,9.817848,-0.0019839045,0.0143918935,-0.109478325,63.116188,-20.936981,27.764479,23.1298476,72.54596228,21.520178
1729838172356,0.3481178,-1.1387169,9.797011,-0.0019839045,0.0143918935,-0.109478325,63.116188,-20.936981,27.764479,23.1298476,72.54596228,21.520178
1729838172356,0.3037385,-1.1295578,9.780342,-0.0019839045,0.0143918935,-0.109478325,63.116188,-20.936981,27.764479,23.1298476,72.54596228,21.520178
1729838172356,0.46217334,-1.131443,9.737575,-0.0019839045,0.0143918935,-0.109478325,63.116188,-20.936981,27.764479,23.1298476,72.54596228,21.520178
1729838172357,0.5435772,-1.0464506,9.599033,-0.0019839045,0.0143918935,-0.109478325,63.116188,-20.936981,27.764479,23.1298476,72.54596228,21.520178
1729838172363,0.1848118,-1.0385165,9.581042,-0.0019839045,0.0143918935,-0.109478325,63.116188,-20.936981,27.764479,23.1298476,72.54596228,21.520178
1729838172421,0.1848118,-1.0385165,9.581042,3.9818673E-4,0.016675323,-0.09381349,63.116188,-20.936981,27.764479,23.1298476,72.54596228,21.520178
